Import_Stim.thisRepN,Import_Stim.thisTrialN,Import_Stim.thisN,Import_Stim.thisIndex,Import_Stim.ran,Stim,CorrResp,Ctx_color,imStim,imStim_r,imStim_g,x_pos,y_pos,Hand,Feedback,participant,session,date,expName,psychopyVersion,OS,frameRate,stim_key_map_ctx1,stim_key_map_ctx2,Instr_RT_Press.keys,Instr_RT_Press.rt,Instr_Block_Num_Press.keys,Instr_Block_Num_Press.rt,Symbol,Shape,ctx,Stim_Type,Finger,Block_Type,Remap,Repeat_Count,Trial_Count,Grp_B,Brp_R,Block_Num,Set_Prep_Time,Session,RT_Press.keys,RT_Press.corr,RT_Press.rt,RT_Iter.thisRepN,RT_Iter.thisTrialN,RT_Iter.thisN,RT_Iter.thisIndex,RT_Iter.ran,RT_Block.thisRepN,RT_Block.thisTrialN,RT_Block.thisN,RT_Block.thisIndex,RT_Block.ran
0,0,0,0,1,0,h,red,media/djnb.png,media/djnb_r.png,media/djnb_g.png,-0.038,0.075,media/hand.png,media/check.png,2,4,2020-12-11_09h07.42.935,Context_Learning_Pilot,2020.1.3,MacIntel,60,,,,,,,,,,,,,,,,,,,,,,,,,,,,,,,,,
0,1,1,1,1,1,u,red,media/dnnb.png,media/dnnb_r.png,media/dnnb_g.png,0.014,0.1,media/hand.png,media/cross.png,2,4,2020-12-11_09h07.42.935,Context_Learning_Pilot,2020.1.3,MacIntel,60,,,,,,,,,,,,,,,,,,,,,,,,,,,,,,,,,
0,2,2,2,1,2,i,red,media/dinb.png,media/dinb_r.png,media/dinb_g.png,0.057,0.08,media/hand.png,media/check.png,2,4,2020-12-11_09h07.42.935,Context_Learning_Pilot,2020.1.3,MacIntel,60,,,,,,,,,,,,,,,,,,,,,,,,,,,,,,,,,
0,3,3,3,1,3,l,red,media/ddnb.png,media/ddnb_r.png,media/ddnb_g.png,0.1,0.04,media/hand.png,media/cross.png,2,4,2020-12-11_09h07.42.935,Context_Learning_Pilot,2020.1.3,MacIntel,60,,,,,,,,,,,,,,,,,,,,,,,,,,,,,,,,,
0,4,4,4,1,0,h,green,media/djnb.png,media/djnb_r.png,media/djnb_g.png,-0.038,0.075,media/hand.png,media/check.png,2,4,2020-12-11_09h07.42.935,Context_Learning_Pilot,2020.1.3,MacIntel,60,,,,,,,,,,,,,,,,,,,,,,,,,,,,,,,,,
0,5,5,5,1,1,u,green,media/dnnb.png,media/dnnb_r.png,media/dnnb_g.png,0.014,0.1,media/hand.png,media/cross.png,2,4,2020-12-11_09h07.42.935,Context_Learning_Pilot,2020.1.3,MacIntel,60,,,,,,,,,,,,,,,,,,,,,,,,,,,,,,,,,
0,6,6,6,1,2,i,green,media/dinb.png,media/dinb_r.png,media/dinb_g.png,0.057,0.08,media/hand.png,media/check.png,2,4,2020-12-11_09h07.42.935,Context_Learning_Pilot,2020.1.3,MacIntel,60,,,,,,,,,,,,,,,,,,,,,,,,,,,,,,,,,
,,,,,,,,,,,,,,,2,4,2020-12-11_09h07.42.935,Context_Learning_Pilot,2020.1.3,MacIntel,60,"[1,2,0,3]","[0,3,1,2]",h,13.78714,h,0.706915,2,media/dinb.png,1,Symb,h,RT,0,0,0,0,1,1,1.8,4,h,1,0.725325,0,0,0,0,1,,,,,
,,,,,,,,,,,,,,,2,4,2020-12-11_09h07.42.935,Context_Learning_Pilot,2020.1.3,MacIntel,60,,,,,,,1,media/dnnb.png,1,Symb,i,RT,0,0,1,0,1,1,1.8,4,l,0,0.894645,1,0,1,0,1,,,,,
,,,,,,,,,,,,,,,2,4,2020-12-11_09h07.42.935,Context_Learning_Pilot,2020.1.3,MacIntel,60,,,,,,,3,media/ddnb.png,2,Symb,i,RT,0,0,2,0,1,1,1.8,4,i,1,0.878515,2,0,2,0,1,,,,,
,,,,,,,,,,,,,,,2,4,2020-12-11_09h07.42.935,Context_Learning_Pilot,2020.1.3,MacIntel,60,,,,,,,0,media/djnb.png,2,Symb,h,RT,0,0,3,0,1,1,1.8,4,h,1,0.66977,3,0,3,0,1,,,,,
,,,,,,,,,,,,,,,2,4,2020-12-11_09h07.42.935,Context_Learning_Pilot,2020.1.3,MacIntel,60,,,,,,,3,media/ddnb.png,1,Symb,l,RT,0,0,4,0,1,1,1.8,4,l,1,0.69239,4,0,4,0,1,,,,,
,,,,,,,,,,,,,,,2,4,2020-12-11_09h07.42.935,Context_Learning_Pilot,2020.1.3,MacIntel,60,,,,,,,0,media/djnb.png,1,Symb,u,RT,0,0,5,0,1,1,1.8,4,u,1,0.85526,5,0,5,0,1,,,,,
,,,,,,,,,,,,,,,2,4,2020-12-11_09h07.42.935,Context_Learning_Pilot,2020.1.3,MacIntel,60,,,,,,,0,media/djnb.png,2,Symb,h,RT,0,0,6,0,1,1,1.8,4,h,1,0.568895,6,0,6,0,1,,,,,
,,,,,,,,,,,,,,,2,4,2020-12-11_09h07.42.935,Context_Learning_Pilot,2020.1.3,MacIntel,60,,,,,,,3,media/ddnb.png,2,Symb,i,RT,0,0,7,0,1,1,1.8,4,i,1,0.755685,7,0,7,0,1,,,,,
,,,,,,,,,,,,,,,2,4,2020-12-11_09h07.42.935,Context_Learning_Pilot,2020.1.3,MacIntel,60,,,,,,,1,media/dnnb.png,1,Symb,i,RT,0,0,8,0,1,1,1.8,4,i,1,1.015245,8,0,8,0,1,,,,,
,,,,,,,,,,,,,,,2,4,2020-12-11_09h07.42.935,Context_Learning_Pilot,2020.1.3,MacIntel,60,,,,,,,2,media/dinb.png,1,Symb,h,RT,0,0,9,0,1,1,1.8,4,h,1,0.8368,9,0,9,0,1,,,,,
,,,,,,,,,,,,,,,2,4,2020-12-11_09h07.42.935,Context_Learning_Pilot,2020.1.3,MacIntel,60,,,,,,,2,media/dinb.png,2,Symb,u,RT,0,0,10,0,1,1,1.8,4,u,1,1.18515,10,0,10,0,1,,,,,
,,,,,,,,,,,,,,,2,4,2020-12-11_09h07.42.935,Context_Learning_Pilot,2020.1.3,MacIntel,60,,,,,,,1,media/dnnb.png,2,Symb,l,RT,0,0,11,0,1,1,1.8,4,l,1,0.926025,11,0,11,0,1,,,,,
,,,,,,,,,,,,,,,2,4,2020-12-11_09h07.42.935,Context_Learning_Pilot,2020.1.3,MacIntel,60,,,,,,,0,media/djnb.png,1,Symb,u,RT,0,0,12,0,1,1,1.8,4,u,1,1.36361,12,0,12,0,1,,,,,
,,,,,,,,,,,,,,,2,4,2020-12-11_09h07.42.935,Context_Learning_Pilot,2020.1.3,MacIntel,60,,,,,,,1,media/dnnb.png,2,Symb,l,RT,0,0,13,0,1,1,1.8,4,l,1,0.920625,13,0,13,0,1,,,,,
,,,,,,,,,,,,,,,2,4,2020-12-11_09h07.42.935,Context_Learning_Pilot,2020.1.3,MacIntel,60,,,,,,,3,media/ddnb.png,1,Symb,l,RT,0,0,14,0,1,1,1.8,4,l,1,0.92861,14,0,14,0,1,,,,,
,,,,,,,,,,,,,,,2,4,2020-12-11_09h07.42.935,Context_Learning_Pilot,2020.1.3,MacIntel,60,,,,,,,2,media/dinb.png,2,Symb,u,RT,0,0,15,0,1,1,1.8,4,u,1,0.75804,15,0,15,0,1,,,,,
,,,,,,,,,,,,,,,2,4,2020-12-11_09h07.42.935,Context_Learning_Pilot,2020.1.3,MacIntel,60,,,,,,,2,media/dinb.png,1,Symb,h,RT,0,0,16,0,1,1,1.8,4,h,1,1.003065,16,0,16,0,1,,,,,
,,,,,,,,,,,,,,,2,4,2020-12-11_09h07.42.935,Context_Learning_Pilot,2020.1.3,MacIntel,60,,,,,,,1,media/dnnb.png,2,Symb,l,RT,0,0,17,0,1,1,1.8,4,l,1,0.903045,17,0,17,0,1,,,,,
,,,,,,,,,,,,,,,2,4,2020-12-11_09h07.42.935,Context_Learning_Pilot,2020.1.3,MacIntel,60,,,,,,,1,media/dnnb.png,2,Symb,l,RT,0,0,18,0,1,1,1.8,4,l,1,0.726925,18,0,18,0,1,,,,,
,,,,,,,,,,,,,,,2,4,2020-12-11_09h07.42.935,Context_Learning_Pilot,2020.1.3,MacIntel,60,,,,,,,2,media/dinb.png,2,Symb,u,RT,0,0,19,0,1,1,1.8,4,u,1,1.06264,19,0,19,0,1,,,,,
,,,,,,,,,,,,,,,2,4,2020-12-11_09h07.42.935,Context_Learning_Pilot,2020.1.3,MacIntel,60,,,,,,,3,media/ddnb.png,1,Symb,l,RT,0,0,20,0,1,1,1.8,4,l,1,0.967005,20,0,20,0,1,,,,,
,,,,,,,,,,,,,,,2,4,2020-12-11_09h07.42.935,Context_Learning_Pilot,2020.1.3,MacIntel,60,,,,,,,3,media/ddnb.png,1,Symb,l,RT,0,0,21,0,1,1,1.8,4,l,1,0.520925,21,0,21,0,1,,,,,
,,,,,,,,,,,,,,,2,4,2020-12-11_09h07.42.935,Context_Learning_Pilot,2020.1.3,MacIntel,60,,,,,,,3,media/ddnb.png,2,Symb,i,RT,0,0,22,0,1,1,1.8,4,i,1,0.88405,22,0,22,0,1,,,,,
,,,,,,,,,,,,,,,2,4,2020-12-11_09h07.42.935,Context_Learning_Pilot,2020.1.3,MacIntel,60,,,,,,,3,media/ddnb.png,2,Symb,i,RT,0,0,23,0,1,1,1.8,4,i,1,0.576455,23,0,23,0,1,,,,,
,,,,,,,,,,,,,,,2,4,2020-12-11_09h07.42.935,Context_Learning_Pilot,2020.1.3,MacIntel,60,,,,,,,2,media/dinb.png,1,Symb,h,RT,0,0,24,0,1,1,1.8,4,h,1,0.87225,24,0,24,0,1,,,,,
,,,,,,,,,,,,,,,2,4,2020-12-11_09h07.42.935,Context_Learning_Pilot,2020.1.3,MacIntel,60,,,,,,,0,media/djnb.png,1,Symb,u,RT,0,0,25,0,1,1,1.8,4,u,1,1.502755,25,0,25,0,1,,,,,
,,,,,,,,,,,,,,,2,4,2020-12-11_09h07.42.935,Context_Learning_Pilot,2020.1.3,MacIntel,60,,,,,,,1,media/dnnb.png,1,Symb,i,RT,0,0,26,0,1,1,1.8,4,l,0,1.06696,26,0,26,0,1,,,,,
,,,,,,,,,,,,,,,2,4,2020-12-11_09h07.42.935,Context_Learning_Pilot,2020.1.3,MacIntel,60,,,,,,,0,media/djnb.png,2,Symb,h,RT,0,0,27,0,1,1,1.8,4,h,1,0.60542,27,0,27,0,1,,,,,
,,,,,,,,,,,,,,,2,4,2020-12-11_09h07.42.935,Context_Learning_Pilot,2020.1.3,MacIntel,60,,,,,,,0,media/djnb.png,1,Symb,u,RT,0,0,28,0,1,1,1.8,4,u,1,0.68271,28,0,28,0,1,,,,,
,,,,,,,,,,,,,,,2,4,2020-12-11_09h07.42.935,Context_Learning_Pilot,2020.1.3,MacIntel,60,,,,,,,0,media/djnb.png,2,Symb,h,RT,0,0,29,0,1,1,1.8,4,h,1,0.9054,29,0,29,0,1,,,,,
,,,,,,,,,,,,,,,2,4,2020-12-11_09h07.42.935,Context_Learning_Pilot,2020.1.3,MacIntel,60,,,,,,,2,media/dinb.png,2,Symb,u,RT,0,0,30,0,1,1,1.8,4,u,1,0.8098,30,0,30,0,1,,,,,
,,,,,,,,,,,,,,,2,4,2020-12-11_09h07.42.935,Context_Learning_Pilot,2020.1.3,MacIntel,60,,,,,,,1,media/dnnb.png,1,Symb,i,RT,0,0,31,0,1,1,1.8,4,i,1,1.01089,31,0,31,0,1,,,,,
,,,,,,,,,,,,,,,2,4,2020-12-11_09h07.42.935,Context_Learning_Pilot,2020.1.3,MacIntel,60,,,,,,,2,media/dinb.png,1,Symb,h,RT,0,0,32,0,1,1,1.8,4,h,1,0.78836,32,0,32,0,1,,,,,
,,,,,,,,,,,,,,,2,4,2020-12-11_09h07.42.935,Context_Learning_Pilot,2020.1.3,MacIntel,60,,,,,,,0,media/djnb.png,1,Symb,u,RT,0,0,33,0,1,1,1.8,4,u,1,0.622795,33,0,33,0,1,,,,,
,,,,,,,,,,,,,,,2,4,2020-12-11_09h07.42.935,Context_Learning_Pilot,2020.1.3,MacIntel,60,,,,,,,0,media/djnb.png,2,Symb,h,RT,0,0,34,0,1,1,1.8,4,h,1,0.560755,34,0,34,0,1,,,,,
,,,,,,,,,,,,,,,2,4,2020-12-11_09h07.42.935,Context_Learning_Pilot,2020.1.3,MacIntel,60,,,,,,,1,media/dnnb.png,1,Symb,i,RT,0,0,35,0,1,1,1.8,4,i,1,0.83961,35,0,35,0,1,,,,,
,,,,,,,,,,,,,,,2,4,2020-12-11_09h07.42.935,Context_Learning_Pilot,2020.1.3,MacIntel,60,,,,,,,1,media/dnnb.png,1,Symb,i,RT,0,0,36,0,1,1,1.8,4,i,1,0.547155,36,0,36,0,1,,,,,
,,,,,,,,,,,,,,,2,4,2020-12-11_09h07.42.935,Context_Learning_Pilot,2020.1.3,MacIntel,60,,,,,,,3,media/ddnb.png,1,Symb,l,RT,0,0,37,0,1,1,1.8,4,l,1,0.821595,37,0,37,0,1,,,,,
,,,,,,,,,,,,,,,2,4,2020-12-11_09h07.42.935,Context_Learning_Pilot,2020.1.3,MacIntel,60,,,,,,,3,media/ddnb.png,2,Symb,i,RT,0,0,38,0,1,1,1.8,4,i,1,0.67763,38,0,38,0,1,,,,,
,,,,,,,,,,,,,,,2,4,2020-12-11_09h07.42.935,Context_Learning_Pilot,2020.1.3,MacIntel,60,,,,,,,2,media/dinb.png,1,Symb,h,RT,0,0,39,0,1,1,1.8,4,h,1,0.65443,39,0,39,0,1,,,,,
,,,,,,,,,,,,,,,2,4,2020-12-11_09h07.42.935,Context_Learning_Pilot,2020.1.3,MacIntel,60,,,,,,,0,media/djnb.png,2,Symb,h,RT,0,0,40,0,1,1,1.8,4,h,1,0.62275,40,0,40,0,1,,,,,
,,,,,,,,,,,,,,,2,4,2020-12-11_09h07.42.935,Context_Learning_Pilot,2020.1.3,MacIntel,60,,,,,,,1,media/dnnb.png,2,Symb,l,RT,0,0,41,0,1,1,1.8,4,l,1,0.63521,41,0,41,0,1,,,,,
,,,,,,,,,,,,,,,2,4,2020-12-11_09h07.42.935,Context_Learning_Pilot,2020.1.3,MacIntel,60,,,,,,,0,media/djnb.png,1,Symb,u,RT,0,0,42,0,1,1,1.8,4,u,1,0.71386,42,0,42,0,1,,,,,
,,,,,,,,,,,,,,,2,4,2020-12-11_09h07.42.935,Context_Learning_Pilot,2020.1.3,MacIntel,60,,,,,,,1,media/dnnb.png,2,Symb,l,RT,0,0,43,0,1,1,1.8,4,l,1,0.650035,43,0,43,0,1,,,,,
,,,,,,,,,,,,,,,2,4,2020-12-11_09h07.42.935,Context_Learning_Pilot,2020.1.3,MacIntel,60,,,,,,,2,media/dinb.png,2,Symb,u,RT,0,0,44,0,1,1,1.8,4,u,1,0.819685,44,0,44,0,1,,,,,
,,,,,,,,,,,,,,,2,4,2020-12-11_09h07.42.935,Context_Learning_Pilot,2020.1.3,MacIntel,60,,,,,,,3,media/ddnb.png,1,Symb,l,RT,0,0,45,0,1,1,1.8,4,l,1,0.954375,45,0,45,0,1,,,,,
,,,,,,,,,,,,,,,2,4,2020-12-11_09h07.42.935,Context_Learning_Pilot,2020.1.3,MacIntel,60,,,,,,,2,media/dinb.png,2,Symb,u,RT,0,0,46,0,1,1,1.8,4,u,1,0.97365,46,0,46,0,1,,,,,
,,,,,,,,,,,,,,,2,4,2020-12-11_09h07.42.935,Context_Learning_Pilot,2020.1.3,MacIntel,60,,,,,,,3,media/ddnb.png,2,Symb,i,RT,0,0,47,0,1,1,1.8,4,i,1,0.836585,47,0,47,0,1,,,,,
,,,,,,,,,,,,,,,2,4,2020-12-11_09h07.42.935,Context_Learning_Pilot,2020.1.3,MacIntel,60,,,,,,,1,media/dnnb.png,1,Symb,i,RT,0,0,48,0,1,1,1.8,4,i,1,0.846385,48,0,48,0,1,,,,,
,,,,,,,,,,,,,,,2,4,2020-12-11_09h07.42.935,Context_Learning_Pilot,2020.1.3,MacIntel,60,,,,,,,2,media/dinb.png,2,Symb,u,RT,0,0,49,0,1,1,1.8,4,u,1,0.91009,49,0,49,0,1,,,,,
,,,,,,,,,,,,,,,2,4,2020-12-11_09h07.42.935,Context_Learning_Pilot,2020.1.3,MacIntel,60,,,,,,,2,media/dinb.png,1,Symb,h,RT,0,0,50,0,1,1,1.8,4,h,1,0.63709,50,0,50,0,1,,,,,
,,,,,,,,,,,,,,,2,4,2020-12-11_09h07.42.935,Context_Learning_Pilot,2020.1.3,MacIntel,60,,,,,,,3,media/ddnb.png,2,Symb,i,RT,0,0,51,0,1,1,1.8,4,i,1,1.044225,51,0,51,0,1,,,,,
,,,,,,,,,,,,,,,2,4,2020-12-11_09h07.42.935,Context_Learning_Pilot,2020.1.3,MacIntel,60,,,,,,,0,media/djnb.png,2,Symb,h,RT,0,0,52,0,1,1,1.8,4,h,1,0.906235,52,0,52,0,1,,,,,
,,,,,,,,,,,,,,,2,4,2020-12-11_09h07.42.935,Context_Learning_Pilot,2020.1.3,MacIntel,60,,,,,,,2,media/dinb.png,2,Symb,u,RT,0,0,53,0,1,1,1.8,4,u,1,1.057905,53,0,53,0,1,,,,,
,,,,,,,,,,,,,,,2,4,2020-12-11_09h07.42.935,Context_Learning_Pilot,2020.1.3,MacIntel,60,,,,,,,0,media/djnb.png,1,Symb,u,RT,0,0,54,0,1,1,1.8,4,i,0,0.795165,54,0,54,0,1,,,,,
,,,,,,,,,,,,,,,2,4,2020-12-11_09h07.42.935,Context_Learning_Pilot,2020.1.3,MacIntel,60,,,,,,,3,media/ddnb.png,1,Symb,l,RT,0,0,55,0,1,1,1.8,4,l,1,1.36683,55,0,55,0,1,,,,,
,,,,,,,,,,,,,,,2,4,2020-12-11_09h07.42.935,Context_Learning_Pilot,2020.1.3,MacIntel,60,,,,,,,3,media/ddnb.png,2,Symb,i,RT,0,0,56,0,1,1,1.8,4,i,1,0.708125,56,0,56,0,1,,,,,
,,,,,,,,,,,,,,,2,4,2020-12-11_09h07.42.935,Context_Learning_Pilot,2020.1.3,MacIntel,60,,,,,,,0,media/djnb.png,2,Symb,h,RT,0,0,57,0,1,1,1.8,4,h,1,0.784675,57,0,57,0,1,,,,,
,,,,,,,,,,,,,,,2,4,2020-12-11_09h07.42.935,Context_Learning_Pilot,2020.1.3,MacIntel,60,,,,,,,2,media/dinb.png,1,Symb,h,RT,0,0,58,0,1,1,1.8,4,h,1,0.67325,58,0,58,0,1,,,,,
,,,,,,,,,,,,,,,2,4,2020-12-11_09h07.42.935,Context_Learning_Pilot,2020.1.3,MacIntel,60,,,,,,,1,media/dnnb.png,1,Symb,i,RT,0,0,59,0,1,1,1.8,4,i,1,0.80625,59,0,59,0,1,,,,,
,,,,,,,,,,,,,,,2,4,2020-12-11_09h07.42.935,Context_Learning_Pilot,2020.1.3,MacIntel,60,,,,,,,1,media/dnnb.png,2,Symb,l,RT,0,0,60,0,1,1,1.8,4,l,1,0.629505,60,0,60,0,1,,,,,
,,,,,,,,,,,,,,,2,4,2020-12-11_09h07.42.935,Context_Learning_Pilot,2020.1.3,MacIntel,60,,,,,,,3,media/ddnb.png,1,Symb,l,RT,0,0,61,0,1,1,1.8,4,i,0,0.705435,61,0,61,0,1,,,,,
,,,,,,,,,,,,,,,2,4,2020-12-11_09h07.42.935,Context_Learning_Pilot,2020.1.3,MacIntel,60,,,,,,,1,media/dnnb.png,2,Symb,l,RT,0,0,62,0,1,1,1.8,4,l,1,1.26985,62,0,62,0,1,,,,,
,,,,,,,,,,,,,,,2,4,2020-12-11_09h07.42.935,Context_Learning_Pilot,2020.1.3,MacIntel,60,,,,,,,0,media/djnb.png,1,Symb,u,RT,0,0,63,0,1,1,1.8,4,u,1,0.762715,63,0,63,0,1,,,,,
,,,,,,,,,,,,,,,2,4,2020-12-11_09h07.42.935,Context_Learning_Pilot,2020.1.3,MacIntel,60,,,,,,,2,media/dinb.png,2,Symb,u,RT,0,0,64,0,1,1,1.8,4,h,0,0.74708,64,0,64,0,1,,,,,
,,,,,,,,,,,,,,,2,4,2020-12-11_09h07.42.935,Context_Learning_Pilot,2020.1.3,MacIntel,60,,,,,,,3,media/ddnb.png,2,Symb,i,RT,0,0,65,0,1,1,1.8,4,i,1,0.76423,65,0,65,0,1,,,,,
,,,,,,,,,,,,,,,2,4,2020-12-11_09h07.42.935,Context_Learning_Pilot,2020.1.3,MacIntel,60,,,,,,,0,media/djnb.png,2,Symb,h,RT,0,0,66,0,1,1,1.8,4,h,1,0.85571,66,0,66,0,1,,,,,
,,,,,,,,,,,,,,,2,4,2020-12-11_09h07.42.935,Context_Learning_Pilot,2020.1.3,MacIntel,60,,,,,,,0,media/djnb.png,2,Symb,h,RT,0,0,67,0,1,1,1.8,4,h,1,0.52575,67,0,67,0,1,,,,,
,,,,,,,,,,,,,,,2,4,2020-12-11_09h07.42.935,Context_Learning_Pilot,2020.1.3,MacIntel,60,,,,,,,0,media/djnb.png,1,Symb,u,RT,0,0,68,0,1,1,1.8,4,u,1,0.66957,68,0,68,0,1,,,,,
,,,,,,,,,,,,,,,2,4,2020-12-11_09h07.42.935,Context_Learning_Pilot,2020.1.3,MacIntel,60,,,,,,,2,media/dinb.png,1,Symb,h,RT,0,0,69,0,1,1,1.8,4,h,1,0.68635,69,0,69,0,1,,,,,
,,,,,,,,,,,,,,,2,4,2020-12-11_09h07.42.935,Context_Learning_Pilot,2020.1.3,MacIntel,60,,,,,,,1,media/dnnb.png,1,Symb,i,RT,0,0,70,0,1,1,1.8,4,i,1,1.101545,70,0,70,0,1,,,,,
,,,,,,,,,,,,,,,2,4,2020-12-11_09h07.42.935,Context_Learning_Pilot,2020.1.3,MacIntel,60,,,,,,,2,media/dinb.png,1,Symb,h,RT,0,0,71,0,1,1,1.8,4,h,1,0.938505,71,0,71,0,1,,,,,
,,,,,,,,,,,,,,,2,4,2020-12-11_09h07.42.935,Context_Learning_Pilot,2020.1.3,MacIntel,60,,,,,,,3,media/ddnb.png,2,Symb,i,RT,0,0,72,0,1,1,1.8,4,i,1,0.916145,72,0,72,0,1,,,,,
,,,,,,,,,,,,,,,2,4,2020-12-11_09h07.42.935,Context_Learning_Pilot,2020.1.3,MacIntel,60,,,,,,,1,media/dnnb.png,2,Symb,l,RT,0,0,73,0,1,1,1.8,4,l,1,0.7229,73,0,73,0,1,,,,,
,,,,,,,,,,,,,,,2,4,2020-12-11_09h07.42.935,Context_Learning_Pilot,2020.1.3,MacIntel,60,,,,,,,0,media/djnb.png,1,Symb,u,RT,0,0,74,0,1,1,1.8,4,u,1,0.675885,74,0,74,0,1,,,,,
,,,,,,,,,,,,,,,2,4,2020-12-11_09h07.42.935,Context_Learning_Pilot,2020.1.3,MacIntel,60,,,,,,,1,media/dnnb.png,2,Symb,l,RT,0,0,75,0,1,1,1.8,4,l,1,1.10713,75,0,75,0,1,,,,,
,,,,,,,,,,,,,,,2,4,2020-12-11_09h07.42.935,Context_Learning_Pilot,2020.1.3,MacIntel,60,,,,,,,3,media/ddnb.png,1,Symb,l,RT,0,0,76,0,1,1,1.8,4,l,1,1.25237,76,0,76,0,1,,,,,
,,,,,,,,,,,,,,,2,4,2020-12-11_09h07.42.935,Context_Learning_Pilot,2020.1.3,MacIntel,60,,,,,,,2,media/dinb.png,2,Symb,u,RT,0,0,77,0,1,1,1.8,4,u,1,0.968875,77,0,77,0,1,,,,,
,,,,,,,,,,,,,,,2,4,2020-12-11_09h07.42.935,Context_Learning_Pilot,2020.1.3,MacIntel,60,,,,,,,3,media/ddnb.png,1,Symb,l,RT,0,0,78,0,1,1,1.8,4,l,1,0.884765,78,0,78,0,1,,,,,
,,,,,,,,,,,,,,,2,4,2020-12-11_09h07.42.935,Context_Learning_Pilot,2020.1.3,MacIntel,60,,,,,,,1,media/dnnb.png,1,Symb,i,RT,0,0,79,0,1,1,1.8,4,i,1,0.774655,79,0,79,0,1,,,,,
,,,,,,,,,,,,,,,2,4,2020-12-11_09h07.42.935,Context_Learning_Pilot,2020.1.3,MacIntel,60,,,,,,,2,media/dinb.png,1,Symb,h,RT,0,0,80,0,1,1,1.8,4,h,1,0.660155,80,0,80,0,1,,,,,
,,,,,,,,,,,,,,,2,4,2020-12-11_09h07.42.935,Context_Learning_Pilot,2020.1.3,MacIntel,60,,,,,,,2,media/dinb.png,1,Symb,h,RT,0,0,81,0,1,1,1.8,4,h,1,0.553095,81,0,81,0,1,,,,,
,,,,,,,,,,,,,,,2,4,2020-12-11_09h07.42.935,Context_Learning_Pilot,2020.1.3,MacIntel,60,,,,,,,2,media/dinb.png,2,Symb,u,RT,0,0,82,0,1,1,1.8,4,u,1,0.70733,82,0,82,0,1,,,,,
,,,,,,,,,,,,,,,2,4,2020-12-11_09h07.42.935,Context_Learning_Pilot,2020.1.3,MacIntel,60,,,,,,,0,media/djnb.png,2,Symb,h,RT,0,0,83,0,1,1,1.8,4,h,1,0.96034,83,0,83,0,1,,,,,
,,,,,,,,,,,,,,,2,4,2020-12-11_09h07.42.935,Context_Learning_Pilot,2020.1.3,MacIntel,60,,,,,,,0,media/djnb.png,1,Symb,u,RT,0,0,84,0,1,1,1.8,4,u,1,1.10213,84,0,84,0,1,,,,,
,,,,,,,,,,,,,,,2,4,2020-12-11_09h07.42.935,Context_Learning_Pilot,2020.1.3,MacIntel,60,,,,,,,1,media/dnnb.png,1,Symb,i,RT,0,0,85,0,1,1,1.8,4,i,1,0.76912,85,0,85,0,1,,,,,
,,,,,,,,,,,,,,,2,4,2020-12-11_09h07.42.935,Context_Learning_Pilot,2020.1.3,MacIntel,60,,,,,,,1,media/dnnb.png,1,Symb,i,RT,0,0,86,0,1,1,1.8,4,i,1,0.55484,86,0,86,0,1,,,,,
,,,,,,,,,,,,,,,2,4,2020-12-11_09h07.42.935,Context_Learning_Pilot,2020.1.3,MacIntel,60,,,,,,,3,media/ddnb.png,2,Symb,i,RT,0,0,87,0,1,1,1.8,4,i,1,0.923255,87,0,87,0,1,,,,,
,,,,,,,,,,,,,,,2,4,2020-12-11_09h07.42.935,Context_Learning_Pilot,2020.1.3,MacIntel,60,,,,,,,3,media/ddnb.png,1,Symb,l,RT,0,0,88,0,1,1,1.8,4,l,1,0.5917,88,0,88,0,1,,,,,
,,,,,,,,,,,,,,,2,4,2020-12-11_09h07.42.935,Context_Learning_Pilot,2020.1.3,MacIntel,60,,,,,,,0,media/djnb.png,2,Symb,h,RT,0,0,89,0,1,1,1.8,4,h,1,0.677015,89,0,89,0,1,,,,,
,,,,,,,,,,,,,,,2,4,2020-12-11_09h07.42.935,Context_Learning_Pilot,2020.1.3,MacIntel,60,,,,,,,2,media/dinb.png,2,Symb,u,RT,0,0,90,0,1,1,1.8,4,u,1,0.993735,90,0,90,0,1,,,,,
,,,,,,,,,,,,,,,2,4,2020-12-11_09h07.42.935,Context_Learning_Pilot,2020.1.3,MacIntel,60,,,,,,,1,media/dnnb.png,2,Symb,l,RT,0,0,91,0,1,1,1.8,4,l,1,0.74737,91,0,91,0,1,,,,,
,,,,,,,,,,,,,,,2,4,2020-12-11_09h07.42.935,Context_Learning_Pilot,2020.1.3,MacIntel,60,,,,,,,3,media/ddnb.png,2,Symb,i,RT,0,0,92,0,1,1,1.8,4,i,1,0.893395,92,0,92,0,1,,,,,
,,,,,,,,,,,,,,,2,4,2020-12-11_09h07.42.935,Context_Learning_Pilot,2020.1.3,MacIntel,60,,,,,,,0,media/djnb.png,1,Symb,u,RT,0,0,93,0,1,1,1.8,4,u,1,0.636785,93,0,93,0,1,,,,,
,,,,,,,,,,,,,,,2,4,2020-12-11_09h07.42.935,Context_Learning_Pilot,2020.1.3,MacIntel,60,,,,,,,1,media/dnnb.png,2,Symb,l,RT,0,0,94,0,1,1,1.8,4,l,1,0.597695,94,0,94,0,1,,,,,
,,,,,,,,,,,,,,,2,4,2020-12-11_09h07.42.935,Context_Learning_Pilot,2020.1.3,MacIntel,60,,,,,,,3,media/ddnb.png,1,Symb,l,RT,0,0,95,0,1,1,1.8,4,l,1,0.67831,95,0,95,0,1,,,,,
,,,,,,,,,,,,,,,2,4,2020-12-11_09h07.42.935,Context_Learning_Pilot,2020.1.3,MacIntel,60,,,,,,,,,,,,,,,,,,,,,,,,,,,,,0,0,0,0,1
,,,,,,,,,,,,,,,2,4,2020-12-11_09h07.42.935,Context_Learning_Pilot,2020.1.3,MacIntel,60,,,,,h,1.580425,1,media/dnnb.png,1,Symb,i,RT,0,0,0,0,1,2,1.8,4,i,1,0.83942,0,0,0,0,1,,,,,
,,,,,,,,,,,,,,,2,4,2020-12-11_09h07.42.935,Context_Learning_Pilot,2020.1.3,MacIntel,60,,,,,,,0,media/djnb.png,1,Symb,u,RT,0,0,1,0,1,2,1.8,4,u,1,0.718705,1,0,1,0,1,,,,,
,,,,,,,,,,,,,,,2,4,2020-12-11_09h07.42.935,Context_Learning_Pilot,2020.1.3,MacIntel,60,,,,,,,3,media/ddnb.png,1,Symb,l,RT,0,0,2,0,1,2,1.8,4,l,1,0.690145,2,0,2,0,1,,,,,
,,,,,,,,,,,,,,,2,4,2020-12-11_09h07.42.935,Context_Learning_Pilot,2020.1.3,MacIntel,60,,,,,,,3,media/ddnb.png,2,Symb,i,RT,0,0,3,0,1,2,1.8,4,i,1,0.77993,3,0,3,0,1,,,,,
,,,,,,,,,,,,,,,2,4,2020-12-11_09h07.42.935,Context_Learning_Pilot,2020.1.3,MacIntel,60,,,,,,,2,media/dinb.png,1,Symb,h,RT,0,0,4,0,1,2,1.8,4,h,1,0.737225,4,0,4,0,1,,,,,
,,,,,,,,,,,,,,,2,4,2020-12-11_09h07.42.935,Context_Learning_Pilot,2020.1.3,MacIntel,60,,,,,,,0,media/djnb.png,2,Symb,h,RT,0,0,5,0,1,2,1.8,4,h,1,0.73063,5,0,5,0,1,,,,,
,,,,,,,,,,,,,,,2,4,2020-12-11_09h07.42.935,Context_Learning_Pilot,2020.1.3,MacIntel,60,,,,,,,2,media/dinb.png,1,Symb,h,RT,0,0,6,0,1,2,1.8,4,h,1,1.592495,6,0,6,0,1,,,,,
,,,,,,,,,,,,,,,2,4,2020-12-11_09h07.42.935,Context_Learning_Pilot,2020.1.3,MacIntel,60,,,,,,,1,media/dnnb.png,2,Symb,l,RT,0,0,7,0,1,2,1.8,4,l,1,0.684155,7,0,7,0,1,,,,,
,,,,,,,,,,,,,,,2,4,2020-12-11_09h07.42.935,Context_Learning_Pilot,2020.1.3,MacIntel,60,,,,,,,0,media/djnb.png,1,Symb,u,RT,0,0,8,0,1,2,1.8,4,u,1,0.78059,8,0,8,0,1,,,,,
,,,,,,,,,,,,,,,2,4,2020-12-11_09h07.42.935,Context_Learning_Pilot,2020.1.3,MacIntel,60,,,,,,,2,media/dinb.png,2,Symb,u,RT,0,0,9,0,1,2,1.8,4,u,1,1.249515,9,0,9,0,1,,,,,
,,,,,,,,,,,,,,,2,4,2020-12-11_09h07.42.935,Context_Learning_Pilot,2020.1.3,MacIntel,60,,,,,,,0,media/djnb.png,2,Symb,h,RT,0,0,10,0,1,2,1.8,4,h,1,0.73749,10,0,10,0,1,,,,,
,,,,,,,,,,,,,,,2,4,2020-12-11_09h07.42.935,Context_Learning_Pilot,2020.1.3,MacIntel,60,,,,,,,1,media/dnnb.png,2,Symb,l,RT,0,0,11,0,1,2,1.8,4,l,1,1.29225,11,0,11,0,1,,,,,
,,,,,,,,,,,,,,,2,4,2020-12-11_09h07.42.935,Context_Learning_Pilot,2020.1.3,MacIntel,60,,,,,,,2,media/dinb.png,2,Symb,u,RT,0,0,12,0,1,2,1.8,4,u,1,1.32695,12,0,12,0,1,,,,,
,,,,,,,,,,,,,,,2,4,2020-12-11_09h07.42.935,Context_Learning_Pilot,2020.1.3,MacIntel,60,,,,,,,1,media/dnnb.png,1,Symb,i,RT,0,0,13,0,1,2,1.8,4,i,1,0.89111,13,0,13,0,1,,,,,
,,,,,,,,,,,,,,,2,4,2020-12-11_09h07.42.935,Context_Learning_Pilot,2020.1.3,MacIntel,60,,,,,,,3,media/ddnb.png,2,Symb,i,RT,0,0,14,0,1,2,1.8,4,u,0,0.89794,14,0,14,0,1,,,,,
,,,,,,,,,,,,,,,2,4,2020-12-11_09h07.42.935,Context_Learning_Pilot,2020.1.3,MacIntel,60,,,,,,,3,media/ddnb.png,1,Symb,l,RT,0,0,15,0,1,2,1.8,4,l,1,0.898085,15,0,15,0,1,,,,,
,,,,,,,,,,,,,,,2,4,2020-12-11_09h07.42.935,Context_Learning_Pilot,2020.1.3,MacIntel,60,,,,,,,3,media/ddnb.png,2,Symb,i,RT,0,0,16,0,1,2,1.8,4,i,1,0.524915,16,0,16,0,1,,,,,
,,,,,,,,,,,,,,,2,4,2020-12-11_09h07.42.935,Context_Learning_Pilot,2020.1.3,MacIntel,60,,,,,,,1,media/dnnb.png,2,Symb,l,RT,0,0,17,0,1,2,1.8,4,l,1,0.64565,17,0,17,0,1,,,,,
,,,,,,,,,,,,,,,2,4,2020-12-11_09h07.42.935,Context_Learning_Pilot,2020.1.3,MacIntel,60,,,,,,,3,media/ddnb.png,1,Symb,l,RT,0,0,18,0,1,2,1.8,4,l,1,0.69477,18,0,18,0,1,,,,,
,,,,,,,,,,,,,,,2,4,2020-12-11_09h07.42.935,Context_Learning_Pilot,2020.1.3,MacIntel,60,,,,,,,0,media/djnb.png,2,Symb,h,RT,0,0,19,0,1,2,1.8,4,h,1,0.73079,19,0,19,0,1,,,,,
,,,,,,,,,,,,,,,2,4,2020-12-11_09h07.42.935,Context_Learning_Pilot,2020.1.3,MacIntel,60,,,,,,,1,media/dnnb.png,2,Symb,l,RT,0,0,20,0,1,2,1.8,4,l,1,0.736095,20,0,20,0,1,,,,,
,,,,,,,,,,,,,,,2,4,2020-12-11_09h07.42.935,Context_Learning_Pilot,2020.1.3,MacIntel,60,,,,,,,2,media/dinb.png,1,Symb,h,RT,0,0,21,0,1,2,1.8,4,h,1,0.699605,21,0,21,0,1,,,,,
,,,,,,,,,,,,,,,2,4,2020-12-11_09h07.42.935,Context_Learning_Pilot,2020.1.3,MacIntel,60,,,,,,,0,media/djnb.png,1,Symb,u,RT,0,0,22,0,1,2,1.8,4,u,1,0.814085,22,0,22,0,1,,,,,
,,,,,,,,,,,,,,,2,4,2020-12-11_09h07.42.935,Context_Learning_Pilot,2020.1.3,MacIntel,60,,,,,,,1,media/dnnb.png,1,Symb,i,RT,0,0,23,0,1,2,1.8,4,i,1,1.007875,23,0,23,0,1,,,,,
,,,,,,,,,,,,,,,2,4,2020-12-11_09h07.42.935,Context_Learning_Pilot,2020.1.3,MacIntel,60,,,,,,,2,media/dinb.png,2,Symb,u,RT,0,0,24,0,1,2,1.8,4,u,1,1.160435,24,0,24,0,1,,,,,
,,,,,,,,,,,,,,,2,4,2020-12-11_09h07.42.935,Context_Learning_Pilot,2020.1.3,MacIntel,60,,,,,,,0,media/djnb.png,1,Symb,u,RT,0,0,25,0,1,2,1.8,4,u,1,0.966675,25,0,25,0,1,,,,,
,,,,,,,,,,,,,,,2,4,2020-12-11_09h07.42.935,Context_Learning_Pilot,2020.1.3,MacIntel,60,,,,,,,2,media/dinb.png,1,Symb,h,RT,0,0,26,0,1,2,1.8,4,h,1,1.43902,26,0,26,0,1,,,,,
,,,,,,,,,,,,,,,2,4,2020-12-11_09h07.42.935,Context_Learning_Pilot,2020.1.3,MacIntel,60,,,,,,,3,media/ddnb.png,1,Symb,l,RT,0,0,27,0,1,2,1.8,4,l,1,0.83848,27,0,27,0,1,,,,,
,,,,,,,,,,,,,,,2,4,2020-12-11_09h07.42.935,Context_Learning_Pilot,2020.1.3,MacIntel,60,,,,,,,3,media/ddnb.png,2,Symb,i,RT,0,0,28,0,1,2,1.8,4,i,1,0.87393,28,0,28,0,1,,,,,
,,,,,,,,,,,,,,,2,4,2020-12-11_09h07.42.935,Context_Learning_Pilot,2020.1.3,MacIntel,60,,,,,,,1,media/dnnb.png,1,Symb,i,RT,0,0,29,0,1,2,1.8,4,i,1,1.384615,29,0,29,0,1,,,,,
,,,,,,,,,,,,,,,2,4,2020-12-11_09h07.42.935,Context_Learning_Pilot,2020.1.3,MacIntel,60,,,,,,,2,media/dinb.png,2,Symb,u,RT,0,0,30,0,1,2,1.8,4,u,1,1.21217,30,0,30,0,1,,,,,
,,,,,,,,,,,,,,,2,4,2020-12-11_09h07.42.935,Context_Learning_Pilot,2020.1.3,MacIntel,60,,,,,,,0,media/djnb.png,2,Symb,h,RT,0,0,31,0,1,2,1.8,4,h,1,0.64458,31,0,31,0,1,,,,,
,,,,,,,,,,,,,,,2,4,2020-12-11_09h07.42.935,Context_Learning_Pilot,2020.1.3,MacIntel,60,,,,,,,0,media/djnb.png,2,Symb,h,RT,0,0,32,0,1,2,1.8,4,u,0,0.947505,32,0,32,0,1,,,,,
,,,,,,,,,,,,,,,2,4,2020-12-11_09h07.42.935,Context_Learning_Pilot,2020.1.3,MacIntel,60,,,,,,,0,media/djnb.png,1,Symb,u,RT,0,0,33,0,1,2,1.8,4,u,1,0.705965,33,0,33,0,1,,,,,
,,,,,,,,,,,,,,,2,4,2020-12-11_09h07.42.935,Context_Learning_Pilot,2020.1.3,MacIntel,60,,,,,,,1,media/dnnb.png,1,Symb,i,RT,0,0,34,0,1,2,1.8,4,i,1,0.823195,34,0,34,0,1,,,,,
,,,,,,,,,,,,,,,2,4,2020-12-11_09h07.42.935,Context_Learning_Pilot,2020.1.3,MacIntel,60,,,,,,,3,media/ddnb.png,1,Symb,l,RT,0,0,35,0,1,2,1.8,4,l,1,0.992795,35,0,35,0,1,,,,,
,,,,,,,,,,,,,,,2,4,2020-12-11_09h07.42.935,Context_Learning_Pilot,2020.1.3,MacIntel,60,,,,,,,1,media/dnnb.png,2,Symb,l,RT,0,0,36,0,1,2,1.8,4,l,1,1.159585,36,0,36,0,1,,,,,
,,,,,,,,,,,,,,,2,4,2020-12-11_09h07.42.935,Context_Learning_Pilot,2020.1.3,MacIntel,60,,,,,,,3,media/ddnb.png,2,Symb,i,RT,0,0,37,0,1,2,1.8,4,i,1,0.71015,37,0,37,0,1,,,,,
,,,,,,,,,,,,,,,2,4,2020-12-11_09h07.42.935,Context_Learning_Pilot,2020.1.3,MacIntel,60,,,,,,,0,media/djnb.png,2,Symb,h,RT,0,0,38,0,1,2,1.8,4,u,0,0.79251,38,0,38,0,1,,,,,
,,,,,,,,,,,,,,,2,4,2020-12-11_09h07.42.935,Context_Learning_Pilot,2020.1.3,MacIntel,60,,,,,,,2,media/dinb.png,1,Symb,h,RT,0,0,39,0,1,2,1.8,4,h,1,0.737755,39,0,39,0,1,,,,,
,,,,,,,,,,,,,,,2,4,2020-12-11_09h07.42.935,Context_Learning_Pilot,2020.1.3,MacIntel,60,,,,,,,2,media/dinb.png,2,Symb,u,RT,0,0,40,0,1,2,1.8,4,u,1,0.8226,40,0,40,0,1,,,,,
,,,,,,,,,,,,,,,2,4,2020-12-11_09h07.42.935,Context_Learning_Pilot,2020.1.3,MacIntel,60,,,,,,,2,media/dinb.png,1,Symb,h,RT,0,0,41,0,1,2,1.8,4,h,1,0.73088,41,0,41,0,1,,,,,
,,,,,,,,,,,,,,,2,4,2020-12-11_09h07.42.935,Context_Learning_Pilot,2020.1.3,MacIntel,60,,,,,,,0,media/djnb.png,1,Symb,u,RT,0,0,42,0,1,2,1.8,4,u,1,1.17284,42,0,42,0,1,,,,,
,,,,,,,,,,,,,,,2,4,2020-12-11_09h07.42.935,Context_Learning_Pilot,2020.1.3,MacIntel,60,,,,,,,3,media/ddnb.png,2,Symb,i,RT,0,0,43,0,1,2,1.8,4,i,1,0.75186,43,0,43,0,1,,,,,
,,,,,,,,,,,,,,,2,4,2020-12-11_09h07.42.935,Context_Learning_Pilot,2020.1.3,MacIntel,60,,,,,,,2,media/dinb.png,2,Symb,u,RT,0,0,44,0,1,2,1.8,4,u,1,1.330805,44,0,44,0,1,,,,,
,,,,,,,,,,,,,,,2,4,2020-12-11_09h07.42.935,Context_Learning_Pilot,2020.1.3,MacIntel,60,,,,,,,3,media/ddnb.png,1,Symb,l,RT,0,0,45,0,1,2,1.8,4,l,1,0.786485,45,0,45,0,1,,,,,
,,,,,,,,,,,,,,,2,4,2020-12-11_09h07.42.935,Context_Learning_Pilot,2020.1.3,MacIntel,60,,,,,,,1,media/dnnb.png,2,Symb,l,RT,0,0,46,0,1,2,1.8,4,l,1,0.844485,46,0,46,0,1,,,,,
,,,,,,,,,,,,,,,2,4,2020-12-11_09h07.42.935,Context_Learning_Pilot,2020.1.3,MacIntel,60,,,,,,,1,media/dnnb.png,1,Symb,i,RT,0,0,47,0,1,2,1.8,4,i,1,0.707265,47,0,47,0,1,,,,,
,,,,,,,,,,,,,,,2,4,2020-12-11_09h07.42.935,Context_Learning_Pilot,2020.1.3,MacIntel,60,,,,,,,0,media/djnb.png,1,Symb,u,RT,0,0,48,0,1,2,1.8,4,u,1,0.95738,48,0,48,0,1,,,,,
,,,,,,,,,,,,,,,2,4,2020-12-11_09h07.42.935,Context_Learning_Pilot,2020.1.3,MacIntel,60,,,,,,,1,media/dnnb.png,1,Symb,i,RT,0,0,49,0,1,2,1.8,4,i,1,0.709015,49,0,49,0,1,,,,,
,,,,,,,,,,,,,,,2,4,2020-12-11_09h07.42.935,Context_Learning_Pilot,2020.1.3,MacIntel,60,,,,,,,1,media/dnnb.png,2,Symb,l,RT,0,0,50,0,1,2,1.8,4,l,1,0.70194,50,0,50,0,1,,,,,
,,,,,,,,,,,,,,,2,4,2020-12-11_09h07.42.935,Context_Learning_Pilot,2020.1.3,MacIntel,60,,,,,,,0,media/djnb.png,2,Symb,h,RT,0,0,51,0,1,2,1.8,4,h,1,1.091275,51,0,51,0,1,,,,,
,,,,,,,,,,,,,,,2,4,2020-12-11_09h07.42.935,Context_Learning_Pilot,2020.1.3,MacIntel,60,,,,,,,3,media/ddnb.png,2,Symb,i,RT,0,0,52,0,1,2,1.8,4,i,1,0.892935,52,0,52,0,1,,,,,
,,,,,,,,,,,,,,,2,4,2020-12-11_09h07.42.935,Context_Learning_Pilot,2020.1.3,MacIntel,60,,,,,,,1,media/dnnb.png,1,Symb,i,RT,0,0,53,0,1,2,1.8,4,l,0,0.74713,53,0,53,0,1,,,,,
,,,,,,,,,,,,,,,2,4,2020-12-11_09h07.42.935,Context_Learning_Pilot,2020.1.3,MacIntel,60,,,,,,,3,media/ddnb.png,2,Symb,i,RT,0,0,54,0,1,2,1.8,4,i,1,0.82441,54,0,54,0,1,,,,,
,,,,,,,,,,,,,,,2,4,2020-12-11_09h07.42.935,Context_Learning_Pilot,2020.1.3,MacIntel,60,,,,,,,2,media/dinb.png,1,Symb,h,RT,0,0,55,0,1,2,1.8,4,h,1,0.77096,55,0,55,0,1,,,,,
,,,,,,,,,,,,,,,2,4,2020-12-11_09h07.42.935,Context_Learning_Pilot,2020.1.3,MacIntel,60,,,,,,,3,media/ddnb.png,1,Symb,l,RT,0,0,56,0,1,2,1.8,4,l,1,0.791335,56,0,56,0,1,,,,,
,,,,,,,,,,,,,,,2,4,2020-12-11_09h07.42.935,Context_Learning_Pilot,2020.1.3,MacIntel,60,,,,,,,0,media/djnb.png,2,Symb,h,RT,0,0,57,0,1,2,1.8,4,h,1,0.565555,57,0,57,0,1,,,,,
,,,,,,,,,,,,,,,2,4,2020-12-11_09h07.42.935,Context_Learning_Pilot,2020.1.3,MacIntel,60,,,,,,,2,media/dinb.png,1,Symb,h,RT,0,0,58,0,1,2,1.8,4,u,0,0.709115,58,0,58,0,1,,,,,
,,,,,,,,,,,,,,,2,4,2020-12-11_09h07.42.935,Context_Learning_Pilot,2020.1.3,MacIntel,60,,,,,,,2,media/dinb.png,2,Symb,u,RT,0,0,59,0,1,2,1.8,4,u,1,0.74679,59,0,59,0,1,,,,,
,,,,,,,,,,,,,,,2,4,2020-12-11_09h07.42.935,Context_Learning_Pilot,2020.1.3,MacIntel,60,,,,,,,3,media/ddnb.png,1,Symb,l,RT,0,0,60,0,1,2,1.8,4,l,1,0.911595,60,0,60,0,1,,,,,
,,,,,,,,,,,,,,,2,4,2020-12-11_09h07.42.935,Context_Learning_Pilot,2020.1.3,MacIntel,60,,,,,,,1,media/dnnb.png,2,Symb,l,RT,0,0,61,0,1,2,1.8,4,l,1,1.340685,61,0,61,0,1,,,,,
,,,,,,,,,,,,,,,2,4,2020-12-11_09h07.42.935,Context_Learning_Pilot,2020.1.3,MacIntel,60,,,,,,,2,media/dinb.png,2,Symb,u,RT,0,0,62,0,1,2,1.8,4,u,1,1.213265,62,0,62,0,1,,,,,
,,,,,,,,,,,,,,,2,4,2020-12-11_09h07.42.935,Context_Learning_Pilot,2020.1.3,MacIntel,60,,,,,,,0,media/djnb.png,1,Symb,u,RT,0,0,63,0,1,2,1.8,4,u,1,0.99825,63,0,63,0,1,,,,,
,,,,,,,,,,,,,,,2,4,2020-12-11_09h07.42.935,Context_Learning_Pilot,2020.1.3,MacIntel,60,,,,,,,3,media/ddnb.png,1,Symb,l,RT,0,0,64,0,1,2,1.8,4,i,0,0.699695,64,0,64,0,1,,,,,
,,,,,,,,,,,,,,,2,4,2020-12-11_09h07.42.935,Context_Learning_Pilot,2020.1.3,MacIntel,60,,,,,,,2,media/dinb.png,1,Symb,h,RT,0,0,65,0,1,2,1.8,4,h,1,1.156775,65,0,65,0,1,,,,,
,,,,,,,,,,,,,,,2,4,2020-12-11_09h07.42.935,Context_Learning_Pilot,2020.1.3,MacIntel,60,,,,,,,2,media/dinb.png,1,Symb,h,RT,0,0,66,0,1,2,1.8,4,h,1,0.55611,66,0,66,0,1,,,,,
,,,,,,,,,,,,,,,2,4,2020-12-11_09h07.42.935,Context_Learning_Pilot,2020.1.3,MacIntel,60,,,,,,,2,media/dinb.png,2,Symb,u,RT,0,0,67,0,1,2,1.8,4,u,1,0.78206,67,0,67,0,1,,,,,
,,,,,,,,,,,,,,,2,4,2020-12-11_09h07.42.935,Context_Learning_Pilot,2020.1.3,MacIntel,60,,,,,,,1,media/dnnb.png,2,Symb,l,RT,0,0,68,0,1,2,1.8,4,l,1,0.813215,68,0,68,0,1,,,,,
,,,,,,,,,,,,,,,2,4,2020-12-11_09h07.42.935,Context_Learning_Pilot,2020.1.3,MacIntel,60,,,,,,,0,media/djnb.png,1,Symb,u,RT,0,0,69,0,1,2,1.8,4,u,1,1.04772,69,0,69,0,1,,,,,
,,,,,,,,,,,,,,,2,4,2020-12-11_09h07.42.935,Context_Learning_Pilot,2020.1.3,MacIntel,60,,,,,,,2,media/dinb.png,2,Symb,u,RT,0,0,70,0,1,2,1.8,4,u,1,0.85942,70,0,70,0,1,,,,,
,,,,,,,,,,,,,,,2,4,2020-12-11_09h07.42.935,Context_Learning_Pilot,2020.1.3,MacIntel,60,,,,,,,0,media/djnb.png,2,Symb,h,RT,0,0,71,0,1,2,1.8,4,h,1,1.199715,71,0,71,0,1,,,,,
,,,,,,,,,,,,,,,2,4,2020-12-11_09h07.42.935,Context_Learning_Pilot,2020.1.3,MacIntel,60,,,,,,,3,media/ddnb.png,2,Symb,i,RT,0,0,72,0,1,2,1.8,4,i,1,0.812175,72,0,72,0,1,,,,,
,,,,,,,,,,,,,,,2,4,2020-12-11_09h07.42.935,Context_Learning_Pilot,2020.1.3,MacIntel,60,,,,,,,3,media/ddnb.png,2,Symb,i,RT,0,0,73,0,1,2,1.8,4,i,1,1.75023,73,0,73,0,1,,,,,
,,,,,,,,,,,,,,,2,4,2020-12-11_09h07.42.935,Context_Learning_Pilot,2020.1.3,MacIntel,60,,,,,,,1,media/dnnb.png,2,Symb,l,RT,0,0,74,0,1,2,1.8,4,l,1,0.63242,74,0,74,0,1,,,,,
,,,,,,,,,,,,,,,2,4,2020-12-11_09h07.42.935,Context_Learning_Pilot,2020.1.3,MacIntel,60,,,,,,,3,media/ddnb.png,1,Symb,l,RT,0,0,75,0,1,2,1.8,4,l,1,0.69997,75,0,75,0,1,,,,,
,,,,,,,,,,,,,,,2,4,2020-12-11_09h07.42.935,Context_Learning_Pilot,2020.1.3,MacIntel,60,,,,,,,1,media/dnnb.png,1,Symb,i,RT,0,0,76,0,1,2,1.8,4,i,1,0.645005,76,0,76,0,1,,,,,
,,,,,,,,,,,,,,,2,4,2020-12-11_09h07.42.935,Context_Learning_Pilot,2020.1.3,MacIntel,60,,,,,,,0,media/djnb.png,1,Symb,u,RT,0,0,77,0,1,2,1.8,4,u,1,0.774815,77,0,77,0,1,,,,,
,,,,,,,,,,,,,,,2,4,2020-12-11_09h07.42.935,Context_Learning_Pilot,2020.1.3,MacIntel,60,,,,,,,0,media/djnb.png,2,Symb,h,RT,0,0,78,0,1,2,1.8,4,h,1,0.93184,78,0,78,0,1,,,,,
,,,,,,,,,,,,,,,2,4,2020-12-11_09h07.42.935,Context_Learning_Pilot,2020.1.3,MacIntel,60,,,,,,,1,media/dnnb.png,1,Symb,i,RT,0,0,79,0,1,2,1.8,4,i,1,1.15342,79,0,79,0,1,,,,,
,,,,,,,,,,,,,,,2,4,2020-12-11_09h07.42.935,Context_Learning_Pilot,2020.1.3,MacIntel,60,,,,,,,0,media/djnb.png,1,Symb,u,RT,0,0,80,0,1,2,1.8,4,u,1,2.50845,80,0,80,0,1,,,,,
,,,,,,,,,,,,,,,2,4,2020-12-11_09h07.42.935,Context_Learning_Pilot,2020.1.3,MacIntel,60,,,,,,,3,media/ddnb.png,1,Symb,l,RT,0,0,81,0,1,2,1.8,4,l,1,0.99638,81,0,81,0,1,,,,,
,,,,,,,,,,,,,,,2,4,2020-12-11_09h07.42.935,Context_Learning_Pilot,2020.1.3,MacIntel,60,,,,,,,1,media/dnnb.png,1,Symb,i,RT,0,0,82,0,1,2,1.8,4,i,1,0.792175,82,0,82,0,1,,,,,
,,,,,,,,,,,,,,,2,4,2020-12-11_09h07.42.935,Context_Learning_Pilot,2020.1.3,MacIntel,60,,,,,,,3,media/ddnb.png,1,Symb,l,RT,0,0,83,0,1,2,1.8,4,l,1,2.007085,83,0,83,0,1,,,,,
,,,,,,,,,,,,,,,2,4,2020-12-11_09h07.42.935,Context_Learning_Pilot,2020.1.3,MacIntel,60,,,,,,,3,media/ddnb.png,2,Symb,i,RT,0,0,84,0,1,2,1.8,4,i,1,0.759195,84,0,84,0,1,,,,,
,,,,,,,,,,,,,,,2,4,2020-12-11_09h07.42.935,Context_Learning_Pilot,2020.1.3,MacIntel,60,,,,,,,1,media/dnnb.png,1,Symb,i,RT,0,0,85,0,1,2,1.8,4,i,1,0.865475,85,0,85,0,1,,,,,
,,,,,,,,,,,,,,,2,4,2020-12-11_09h07.42.935,Context_Learning_Pilot,2020.1.3,MacIntel,60,,,,,,,2,media/dinb.png,2,Symb,u,RT,0,0,86,0,1,2,1.8,4,u,1,1.07566,86,0,86,0,1,,,,,
,,,,,,,,,,,,,,,2,4,2020-12-11_09h07.42.935,Context_Learning_Pilot,2020.1.3,MacIntel,60,,,,,,,1,media/dnnb.png,2,Symb,l,RT,0,0,87,0,1,2,1.8,4,l,1,1.213795,87,0,87,0,1,,,,,
,,,,,,,,,,,,,,,2,4,2020-12-11_09h07.42.935,Context_Learning_Pilot,2020.1.3,MacIntel,60,,,,,,,3,media/ddnb.png,2,Symb,i,RT,0,0,88,0,1,2,1.8,4,i,1,0.8704,88,0,88,0,1,,,,,
,,,,,,,,,,,,,,,2,4,2020-12-11_09h07.42.935,Context_Learning_Pilot,2020.1.3,MacIntel,60,,,,,,,2,media/dinb.png,1,Symb,h,RT,0,0,89,0,1,2,1.8,4,h,1,0.645455,89,0,89,0,1,,,,,
,,,,,,,,,,,,,,,2,4,2020-12-11_09h07.42.935,Context_Learning_Pilot,2020.1.3,MacIntel,60,,,,,,,0,media/djnb.png,2,Symb,h,RT,0,0,90,0,1,2,1.8,4,h,1,0.796725,90,0,90,0,1,,,,,
,,,,,,,,,,,,,,,2,4,2020-12-11_09h07.42.935,Context_Learning_Pilot,2020.1.3,MacIntel,60,,,,,,,0,media/djnb.png,1,Symb,u,RT,0,0,91,0,1,2,1.8,4,u,1,0.72049,91,0,91,0,1,,,,,
,,,,,,,,,,,,,,,2,4,2020-12-11_09h07.42.935,Context_Learning_Pilot,2020.1.3,MacIntel,60,,,,,,,0,media/djnb.png,2,Symb,h,RT,0,0,92,0,1,2,1.8,4,u,0,0.833735,92,0,92,0,1,,,,,
,,,,,,,,,,,,,,,2,4,2020-12-11_09h07.42.935,Context_Learning_Pilot,2020.1.3,MacIntel,60,,,,,,,2,media/dinb.png,1,Symb,h,RT,0,0,93,0,1,2,1.8,4,u,0,0.821105,93,0,93,0,1,,,,,
,,,,,,,,,,,,,,,2,4,2020-12-11_09h07.42.935,Context_Learning_Pilot,2020.1.3,MacIntel,60,,,,,,,1,media/dnnb.png,2,Symb,l,RT,0,0,94,0,1,2,1.8,4,l,1,0.88672,94,0,94,0,1,,,,,
,,,,,,,,,,,,,,,2,4,2020-12-11_09h07.42.935,Context_Learning_Pilot,2020.1.3,MacIntel,60,,,,,,,2,media/dinb.png,2,Symb,u,RT,0,0,95,0,1,2,1.8,4,u,1,1.18806,95,0,95,0,1,,,,,
,,,,,,,,,,,,,,,2,4,2020-12-11_09h07.42.935,Context_Learning_Pilot,2020.1.3,MacIntel,60,,,,,,,,,,,,,,,,,,,,,,,,,,,,,1,0,1,0,1
,,,,,,,,,,,,,,,2,4,2020-12-11_09h07.42.935,Context_Learning_Pilot,2020.1.3,MacIntel,60,,,,,h,1.36731,2,media/dinb.png,2,Symb,u,RT,0,0,0,0,1,3,1.8,4,u,1,1.181405,0,0,0,0,1,,,,,
,,,,,,,,,,,,,,,2,4,2020-12-11_09h07.42.935,Context_Learning_Pilot,2020.1.3,MacIntel,60,,,,,,,1,media/dnnb.png,1,Symb,i,RT,0,0,1,0,1,3,1.8,4,i,1,0.86378,1,0,1,0,1,,,,,
,,,,,,,,,,,,,,,2,4,2020-12-11_09h07.42.935,Context_Learning_Pilot,2020.1.3,MacIntel,60,,,,,,,3,media/ddnb.png,1,Symb,l,RT,0,0,2,0,1,3,1.8,4,l,1,0.96075,2,0,2,0,1,,,,,
,,,,,,,,,,,,,,,2,4,2020-12-11_09h07.42.935,Context_Learning_Pilot,2020.1.3,MacIntel,60,,,,,,,3,media/ddnb.png,1,Symb,l,RT,0,0,3,0,1,3,1.8,4,l,1,0.535385,3,0,3,0,1,,,,,
,,,,,,,,,,,,,,,2,4,2020-12-11_09h07.42.935,Context_Learning_Pilot,2020.1.3,MacIntel,60,,,,,,,0,media/djnb.png,2,Symb,h,RT,0,0,4,0,1,3,1.8,4,h,1,0.687225,4,0,4,0,1,,,,,
,,,,,,,,,,,,,,,2,4,2020-12-11_09h07.42.935,Context_Learning_Pilot,2020.1.3,MacIntel,60,,,,,,,1,media/dnnb.png,1,Symb,i,RT,0,0,5,0,1,3,1.8,4,i,1,0.82246,5,0,5,0,1,,,,,
,,,,,,,,,,,,,,,2,4,2020-12-11_09h07.42.935,Context_Learning_Pilot,2020.1.3,MacIntel,60,,,,,,,2,media/dinb.png,1,Symb,h,RT,0,0,6,0,1,3,1.8,4,h,1,0.80067,6,0,6,0,1,,,,,
,,,,,,,,,,,,,,,2,4,2020-12-11_09h07.42.935,Context_Learning_Pilot,2020.1.3,MacIntel,60,,,,,,,2,media/dinb.png,1,Symb,h,RT,0,0,7,0,1,3,1.8,4,h,1,0.53245,7,0,7,0,1,,,,,
,,,,,,,,,,,,,,,2,4,2020-12-11_09h07.42.935,Context_Learning_Pilot,2020.1.3,MacIntel,60,,,,,,,0,media/djnb.png,2,Symb,h,RT,0,0,8,0,1,3,1.8,4,h,1,0.64311,8,0,8,0,1,,,,,
,,,,,,,,,,,,,,,2,4,2020-12-11_09h07.42.935,Context_Learning_Pilot,2020.1.3,MacIntel,60,,,,,,,0,media/djnb.png,1,Symb,u,RT,0,0,9,0,1,3,1.8,4,u,1,0.812365,9,0,9,0,1,,,,,
,,,,,,,,,,,,,,,2,4,2020-12-11_09h07.42.935,Context_Learning_Pilot,2020.1.3,MacIntel,60,,,,,,,2,media/dinb.png,2,Symb,u,RT,0,0,10,0,1,3,1.8,4,u,1,2.08058,10,0,10,0,1,,,,,
,,,,,,,,,,,,,,,2,4,2020-12-11_09h07.42.935,Context_Learning_Pilot,2020.1.3,MacIntel,60,,,,,,,3,media/ddnb.png,2,Symb,i,RT,0,0,11,0,1,3,1.8,4,i,1,0.74444,11,0,11,0,1,,,,,
,,,,,,,,,,,,,,,2,4,2020-12-11_09h07.42.935,Context_Learning_Pilot,2020.1.3,MacIntel,60,,,,,,,3,media/ddnb.png,2,Symb,i,RT,0,0,12,0,1,3,1.8,4,i,1,0.54051,12,0,12,0,1,,,,,
,,,,,,,,,,,,,,,2,4,2020-12-11_09h07.42.935,Context_Learning_Pilot,2020.1.3,MacIntel,60,,,,,,,0,media/djnb.png,1,Symb,u,RT,0,0,13,0,1,3,1.8,4,u,1,1.320905,13,0,13,0,1,,,,,
,,,,,,,,,,,,,,,2,4,2020-12-11_09h07.42.935,Context_Learning_Pilot,2020.1.3,MacIntel,60,,,,,,,1,media/dnnb.png,2,Symb,l,RT,0,0,14,0,1,3,1.8,4,l,1,0.680535,14,0,14,0,1,,,,,
,,,,,,,,,,,,,,,2,4,2020-12-11_09h07.42.935,Context_Learning_Pilot,2020.1.3,MacIntel,60,,,,,,,1,media/dnnb.png,2,Symb,l,RT,0,0,15,0,1,3,1.8,4,l,1,0.525695,15,0,15,0,1,,,,,
,,,,,,,,,,,,,,,2,4,2020-12-11_09h07.42.935,Context_Learning_Pilot,2020.1.3,MacIntel,60,,,,,,,2,media/dinb.png,1,Symb,h,RT,0,0,16,0,1,3,1.8,4,h,1,0.777435,16,0,16,0,1,,,,,
,,,,,,,,,,,,,,,2,4,2020-12-11_09h07.42.935,Context_Learning_Pilot,2020.1.3,MacIntel,60,,,,,,,1,media/dnnb.png,1,Symb,i,RT,0,0,17,0,1,3,1.8,4,i,1,0.825,17,0,17,0,1,,,,,
,,,,,,,,,,,,,,,2,4,2020-12-11_09h07.42.935,Context_Learning_Pilot,2020.1.3,MacIntel,60,,,,,,,0,media/djnb.png,1,Symb,u,RT,0,0,18,0,1,3,1.8,4,u,1,0.758405,18,0,18,0,1,,,,,
,,,,,,,,,,,,,,,2,4,2020-12-11_09h07.42.935,Context_Learning_Pilot,2020.1.3,MacIntel,60,,,,,,,1,media/dnnb.png,2,Symb,l,RT,0,0,19,0,1,3,1.8,4,l,1,0.660385,19,0,19,0,1,,,,,
,,,,,,,,,,,,,,,2,4,2020-12-11_09h07.42.935,Context_Learning_Pilot,2020.1.3,MacIntel,60,,,,,,,3,media/ddnb.png,2,Symb,i,RT,0,0,20,0,1,3,1.8,4,i,1,0.58726,20,0,20,0,1,,,,,
,,,,,,,,,,,,,,,2,4,2020-12-11_09h07.42.935,Context_Learning_Pilot,2020.1.3,MacIntel,60,,,,,,,2,media/dinb.png,2,Symb,u,RT,0,0,21,0,1,3,1.8,4,u,1,0.75748,21,0,21,0,1,,,,,
,,,,,,,,,,,,,,,2,4,2020-12-11_09h07.42.935,Context_Learning_Pilot,2020.1.3,MacIntel,60,,,,,,,0,media/djnb.png,1,Symb,u,RT,0,0,22,0,1,3,1.8,4,u,1,1.153155,22,0,22,0,1,,,,,
,,,,,,,,,,,,,,,2,4,2020-12-11_09h07.42.935,Context_Learning_Pilot,2020.1.3,MacIntel,60,,,,,,,3,media/ddnb.png,1,Symb,l,RT,0,0,23,0,1,3,1.8,4,l,1,0.97355,23,0,23,0,1,,,,,
,,,,,,,,,,,,,,,2,4,2020-12-11_09h07.42.935,Context_Learning_Pilot,2020.1.3,MacIntel,60,,,,,,,2,media/dinb.png,1,Symb,h,RT,0,0,24,0,1,3,1.8,4,u,0,1.41546,24,0,24,0,1,,,,,
,,,,,,,,,,,,,,,2,4,2020-12-11_09h07.42.935,Context_Learning_Pilot,2020.1.3,MacIntel,60,,,,,,,0,media/djnb.png,2,Symb,h,RT,0,0,25,0,1,3,1.8,4,h,1,1.17815,25,0,25,0,1,,,,,
,,,,,,,,,,,,,,,2,4,2020-12-11_09h07.42.935,Context_Learning_Pilot,2020.1.3,MacIntel,60,,,,,,,2,media/dinb.png,2,Symb,u,RT,0,0,26,0,1,3,1.8,4,u,1,1.62711,26,0,26,0,1,,,,,
,,,,,,,,,,,,,,,2,4,2020-12-11_09h07.42.935,Context_Learning_Pilot,2020.1.3,MacIntel,60,,,,,,,3,media/ddnb.png,1,Symb,l,RT,0,0,27,0,1,3,1.8,4,l,1,0.813785,27,0,27,0,1,,,,,
,,,,,,,,,,,,,,,2,4,2020-12-11_09h07.42.935,Context_Learning_Pilot,2020.1.3,MacIntel,60,,,,,,,3,media/ddnb.png,2,Symb,i,RT,0,0,28,0,1,3,1.8,4,i,1,1.24255,28,0,28,0,1,,,,,
,,,,,,,,,,,,,,,2,4,2020-12-11_09h07.42.935,Context_Learning_Pilot,2020.1.3,MacIntel,60,,,,,,,1,media/dnnb.png,1,Symb,i,RT,0,0,29,0,1,3,1.8,4,i,1,0.959465,29,0,29,0,1,,,,,
,,,,,,,,,,,,,,,2,4,2020-12-11_09h07.42.935,Context_Learning_Pilot,2020.1.3,MacIntel,60,,,,,,,1,media/dnnb.png,2,Symb,l,RT,0,0,30,0,1,3,1.8,4,l,1,0.717265,30,0,30,0,1,,,,,
,,,,,,,,,,,,,,,2,4,2020-12-11_09h07.42.935,Context_Learning_Pilot,2020.1.3,MacIntel,60,,,,,,,0,media/djnb.png,2,Symb,h,RT,0,0,31,0,1,3,1.8,4,h,1,1.669475,31,0,31,0,1,,,,,
,,,,,,,,,,,,,,,2,4,2020-12-11_09h07.42.935,Context_Learning_Pilot,2020.1.3,MacIntel,60,,,,,,,2,media/dinb.png,2,Symb,u,RT,0,0,32,0,1,3,1.8,4,u,1,0.79889,32,0,32,0,1,,,,,
,,,,,,,,,,,,,,,2,4,2020-12-11_09h07.42.935,Context_Learning_Pilot,2020.1.3,MacIntel,60,,,,,,,2,media/dinb.png,2,Symb,u,RT,0,0,33,0,1,3,1.8,4,u,1,0.94464,33,0,33,0,1,,,,,
,,,,,,,,,,,,,,,2,4,2020-12-11_09h07.42.935,Context_Learning_Pilot,2020.1.3,MacIntel,60,,,,,,,1,media/dnnb.png,1,Symb,i,RT,0,0,34,0,1,3,1.8,4,i,1,0.657315,34,0,34,0,1,,,,,
,,,,,,,,,,,,,,,2,4,2020-12-11_09h07.42.935,Context_Learning_Pilot,2020.1.3,MacIntel,60,,,,,,,2,media/dinb.png,1,Symb,h,RT,0,0,35,0,1,3,1.8,4,h,1,0.64263,35,0,35,0,1,,,,,
,,,,,,,,,,,,,,,2,4,2020-12-11_09h07.42.935,Context_Learning_Pilot,2020.1.3,MacIntel,60,,,,,,,3,media/ddnb.png,2,Symb,i,RT,0,0,36,0,1,3,1.8,4,i,1,1.077725,36,0,36,0,1,,,,,
,,,,,,,,,,,,,,,2,4,2020-12-11_09h07.42.935,Context_Learning_Pilot,2020.1.3,MacIntel,60,,,,,,,3,media/ddnb.png,2,Symb,i,RT,0,0,37,0,1,3,1.8,4,i,1,0.50349,37,0,37,0,1,,,,,
,,,,,,,,,,,,,,,2,4,2020-12-11_09h07.42.935,Context_Learning_Pilot,2020.1.3,MacIntel,60,,,,,,,0,media/djnb.png,2,Symb,h,RT,0,0,38,0,1,3,1.8,4,h,1,0.591615,38,0,38,0,1,,,,,
,,,,,,,,,,,,,,,2,4,2020-12-11_09h07.42.935,Context_Learning_Pilot,2020.1.3,MacIntel,60,,,,,,,0,media/djnb.png,1,Symb,u,RT,0,0,39,0,1,3,1.8,4,u,1,1.339055,39,0,39,0,1,,,,,
,,,,,,,,,,,,,,,2,4,2020-12-11_09h07.42.935,Context_Learning_Pilot,2020.1.3,MacIntel,60,,,,,,,2,media/dinb.png,1,Symb,h,RT,0,0,40,0,1,3,1.8,4,h,1,0.713285,40,0,40,0,1,,,,,
,,,,,,,,,,,,,,,2,4,2020-12-11_09h07.42.935,Context_Learning_Pilot,2020.1.3,MacIntel,60,,,,,,,1,media/dnnb.png,2,Symb,l,RT,0,0,41,0,1,3,1.8,4,l,1,0.826145,41,0,41,0,1,,,,,
,,,,,,,,,,,,,,,2,4,2020-12-11_09h07.42.935,Context_Learning_Pilot,2020.1.3,MacIntel,60,,,,,,,0,media/djnb.png,2,Symb,h,RT,0,0,42,0,1,3,1.8,4,h,1,0.79234,42,0,42,0,1,,,,,
,,,,,,,,,,,,,,,2,4,2020-12-11_09h07.42.935,Context_Learning_Pilot,2020.1.3,MacIntel,60,,,,,,,0,media/djnb.png,1,Symb,u,RT,0,0,43,0,1,3,1.8,4,u,1,1.214325,43,0,43,0,1,,,,,
,,,,,,,,,,,,,,,2,4,2020-12-11_09h07.42.935,Context_Learning_Pilot,2020.1.3,MacIntel,60,,,,,,,1,media/dnnb.png,1,Symb,i,RT,0,0,44,0,1,3,1.8,4,i,1,0.949465,44,0,44,0,1,,,,,
,,,,,,,,,,,,,,,2,4,2020-12-11_09h07.42.935,Context_Learning_Pilot,2020.1.3,MacIntel,60,,,,,,,1,media/dnnb.png,2,Symb,l,RT,0,0,45,0,1,3,1.8,4,l,1,0.64855,45,0,45,0,1,,,,,
,,,,,,,,,,,,,,,2,4,2020-12-11_09h07.42.935,Context_Learning_Pilot,2020.1.3,MacIntel,60,,,,,,,3,media/ddnb.png,1,Symb,l,RT,0,0,46,0,1,3,1.8,4,l,1,1.404585,46,0,46,0,1,,,,,
,,,,,,,,,,,,,,,2,4,2020-12-11_09h07.42.935,Context_Learning_Pilot,2020.1.3,MacIntel,60,,,,,,,3,media/ddnb.png,1,Symb,l,RT,0,0,47,0,1,3,1.8,4,l,1,0.554085,47,0,47,0,1,,,,,
,,,,,,,,,,,,,,,2,4,2020-12-11_09h07.42.935,Context_Learning_Pilot,2020.1.3,MacIntel,60,,,,,,,3,media/ddnb.png,2,Symb,i,RT,0,0,48,0,1,3,1.8,4,i,1,1.11585,48,0,48,0,1,,,,,
,,,,,,,,,,,,,,,2,4,2020-12-11_09h07.42.935,Context_Learning_Pilot,2020.1.3,MacIntel,60,,,,,,,3,media/ddnb.png,1,Symb,l,RT,0,0,49,0,1,3,1.8,4,l,1,0.757905,49,0,49,0,1,,,,,
,,,,,,,,,,,,,,,2,4,2020-12-11_09h07.42.935,Context_Learning_Pilot,2020.1.3,MacIntel,60,,,,,,,0,media/djnb.png,1,Symb,u,RT,0,0,50,0,1,3,1.8,4,u,1,0.58277,50,0,50,0,1,,,,,
,,,,,,,,,,,,,,,2,4,2020-12-11_09h07.42.935,Context_Learning_Pilot,2020.1.3,MacIntel,60,,,,,,,2,media/dinb.png,2,Symb,u,RT,0,0,51,0,1,3,1.8,4,u,1,0.7686,51,0,51,0,1,,,,,
,,,,,,,,,,,,,,,2,4,2020-12-11_09h07.42.935,Context_Learning_Pilot,2020.1.3,MacIntel,60,,,,,,,3,media/ddnb.png,1,Symb,l,RT,0,0,52,0,1,3,1.8,4,l,1,1.031505,52,0,52,0,1,,,,,
,,,,,,,,,,,,,,,2,4,2020-12-11_09h07.42.935,Context_Learning_Pilot,2020.1.3,MacIntel,60,,,,,,,3,media/ddnb.png,2,Symb,i,RT,0,0,53,0,1,3,1.8,4,i,1,0.712605,53,0,53,0,1,,,,,
,,,,,,,,,,,,,,,2,4,2020-12-11_09h07.42.935,Context_Learning_Pilot,2020.1.3,MacIntel,60,,,,,,,0,media/djnb.png,2,Symb,h,RT,0,0,54,0,1,3,1.8,4,h,1,0.55443,54,0,54,0,1,,,,,
,,,,,,,,,,,,,,,2,4,2020-12-11_09h07.42.935,Context_Learning_Pilot,2020.1.3,MacIntel,60,,,,,,,2,media/dinb.png,2,Symb,u,RT,0,0,55,0,1,3,1.8,4,u,1,0.870775,55,0,55,0,1,,,,,
,,,,,,,,,,,,,,,2,4,2020-12-11_09h07.42.935,Context_Learning_Pilot,2020.1.3,MacIntel,60,,,,,,,1,media/dnnb.png,2,Symb,l,RT,0,0,56,0,1,3,1.8,4,l,1,0.935415,56,0,56,0,1,,,,,
,,,,,,,,,,,,,,,2,4,2020-12-11_09h07.42.935,Context_Learning_Pilot,2020.1.3,MacIntel,60,,,,,,,0,media/djnb.png,1,Symb,u,RT,0,0,57,0,1,3,1.8,4,u,1,0.754025,57,0,57,0,1,,,,,
,,,,,,,,,,,,,,,2,4,2020-12-11_09h07.42.935,Context_Learning_Pilot,2020.1.3,MacIntel,60,,,,,,,1,media/dnnb.png,1,Symb,i,RT,0,0,58,0,1,3,1.8,4,i,1,0.78294,58,0,58,0,1,,,,,
,,,,,,,,,,,,,,,2,4,2020-12-11_09h07.42.935,Context_Learning_Pilot,2020.1.3,MacIntel,60,,,,,,,0,media/djnb.png,2,Symb,h,RT,0,0,59,0,1,3,1.8,4,u,0,0.979555,59,0,59,0,1,,,,,
,,,,,,,,,,,,,,,2,4,2020-12-11_09h07.42.935,Context_Learning_Pilot,2020.1.3,MacIntel,60,,,,,,,1,media/dnnb.png,1,Symb,i,RT,0,0,60,0,1,3,1.8,4,i,1,1.14686,60,0,60,0,1,,,,,
,,,,,,,,,,,,,,,2,4,2020-12-11_09h07.42.935,Context_Learning_Pilot,2020.1.3,MacIntel,60,,,,,,,2,media/dinb.png,1,Symb,h,RT,0,0,61,0,1,3,1.8,4,h,1,0.75361,61,0,61,0,1,,,,,
,,,,,,,,,,,,,,,2,4,2020-12-11_09h07.42.935,Context_Learning_Pilot,2020.1.3,MacIntel,60,,,,,,,1,media/dnnb.png,2,Symb,l,RT,0,0,62,0,1,3,1.8,4,l,1,0.760655,62,0,62,0,1,,,,,
,,,,,,,,,,,,,,,2,4,2020-12-11_09h07.42.935,Context_Learning_Pilot,2020.1.3,MacIntel,60,,,,,,,2,media/dinb.png,1,Symb,h,RT,0,0,63,0,1,3,1.8,4,h,1,0.77689,63,0,63,0,1,,,,,
,,,,,,,,,,,,,,,2,4,2020-12-11_09h07.42.935,Context_Learning_Pilot,2020.1.3,MacIntel,60,,,,,,,1,media/dnnb.png,1,Symb,i,RT,0,0,64,0,1,3,1.8,4,i,1,1.360015,64,0,64,0,1,,,,,
,,,,,,,,,,,,,,,2,4,2020-12-11_09h07.42.935,Context_Learning_Pilot,2020.1.3,MacIntel,60,,,,,,,3,media/ddnb.png,2,Symb,i,RT,0,0,65,0,1,3,1.8,4,i,1,0.872545,65,0,65,0,1,,,,,
,,,,,,,,,,,,,,,2,4,2020-12-11_09h07.42.935,Context_Learning_Pilot,2020.1.3,MacIntel,60,,,,,,,0,media/djnb.png,1,Symb,u,RT,0,0,66,0,1,3,1.8,4,u,1,0.94251,66,0,66,0,1,,,,,
,,,,,,,,,,,,,,,2,4,2020-12-11_09h07.42.935,Context_Learning_Pilot,2020.1.3,MacIntel,60,,,,,,,1,media/dnnb.png,2,Symb,l,RT,0,0,67,0,1,3,1.8,4,l,1,0.599905,67,0,67,0,1,,,,,
,,,,,,,,,,,,,,,2,4,2020-12-11_09h07.42.935,Context_Learning_Pilot,2020.1.3,MacIntel,60,,,,,,,1,media/dnnb.png,1,Symb,i,RT,0,0,68,0,1,3,1.8,4,i,1,0.785485,68,0,68,0,1,,,,,
,,,,,,,,,,,,,,,2,4,2020-12-11_09h07.42.935,Context_Learning_Pilot,2020.1.3,MacIntel,60,,,,,,,2,media/dinb.png,1,Symb,h,RT,0,0,69,0,1,3,1.8,4,h,1,0.96836,69,0,69,0,1,,,,,
,,,,,,,,,,,,,,,2,4,2020-12-11_09h07.42.935,Context_Learning_Pilot,2020.1.3,MacIntel,60,,,,,,,3,media/ddnb.png,1,Symb,l,RT,0,0,70,0,1,3,1.8,4,i,0,0.787145,70,0,70,0,1,,,,,
,,,,,,,,,,,,,,,2,4,2020-12-11_09h07.42.935,Context_Learning_Pilot,2020.1.3,MacIntel,60,,,,,,,0,media/djnb.png,2,Symb,h,RT,0,0,71,0,1,3,1.8,4,h,1,2.10992,71,0,71,0,1,,,,,
,,,,,,,,,,,,,,,2,4,2020-12-11_09h07.42.935,Context_Learning_Pilot,2020.1.3,MacIntel,60,,,,,,,3,media/ddnb.png,1,Symb,l,RT,0,0,72,0,1,3,1.8,4,l,1,1.18589,72,0,72,0,1,,,,,
,,,,,,,,,,,,,,,2,4,2020-12-11_09h07.42.935,Context_Learning_Pilot,2020.1.3,MacIntel,60,,,,,,,2,media/dinb.png,2,Symb,u,RT,0,0,73,0,1,3,1.8,4,u,1,0.77751,73,0,73,0,1,,,,,
,,,,,,,,,,,,,,,2,4,2020-12-11_09h07.42.935,Context_Learning_Pilot,2020.1.3,MacIntel,60,,,,,,,3,media/ddnb.png,2,Symb,i,RT,0,0,74,0,1,3,1.8,4,i,1,0.876025,74,0,74,0,1,,,,,
,,,,,,,,,,,,,,,2,4,2020-12-11_09h07.42.935,Context_Learning_Pilot,2020.1.3,MacIntel,60,,,,,,,2,media/dinb.png,1,Symb,h,RT,0,0,75,0,1,3,1.8,4,h,1,0.918765,75,0,75,0,1,,,,,
,,,,,,,,,,,,,,,2,4,2020-12-11_09h07.42.935,Context_Learning_Pilot,2020.1.3,MacIntel,60,,,,,,,0,media/djnb.png,2,Symb,h,RT,0,0,76,0,1,3,1.8,4,h,1,0.709165,76,0,76,0,1,,,,,
,,,,,,,,,,,,,,,2,4,2020-12-11_09h07.42.935,Context_Learning_Pilot,2020.1.3,MacIntel,60,,,,,,,2,media/dinb.png,2,Symb,u,RT,0,0,77,0,1,3,1.8,4,u,1,0.943475,77,0,77,0,1,,,,,
,,,,,,,,,,,,,,,2,4,2020-12-11_09h07.42.935,Context_Learning_Pilot,2020.1.3,MacIntel,60,,,,,,,1,media/dnnb.png,2,Symb,l,RT,0,0,78,0,1,3,1.8,4,l,1,0.740675,78,0,78,0,1,,,,,
,,,,,,,,,,,,,,,2,4,2020-12-11_09h07.42.935,Context_Learning_Pilot,2020.1.3,MacIntel,60,,,,,,,0,media/djnb.png,1,Symb,u,RT,0,0,79,0,1,3,1.8,4,u,1,1.418045,79,0,79,0,1,,,,,
,,,,,,,,,,,,,,,2,4,2020-12-11_09h07.42.935,Context_Learning_Pilot,2020.1.3,MacIntel,60,,,,,,,1,media/dnnb.png,2,Symb,l,RT,0,0,80,0,1,3,1.8,4,l,1,0.84019,80,0,80,0,1,,,,,
,,,,,,,,,,,,,,,2,4,2020-12-11_09h07.42.935,Context_Learning_Pilot,2020.1.3,MacIntel,60,,,,,,,3,media/ddnb.png,1,Symb,l,RT,0,0,81,0,1,3,1.8,4,l,1,0.83748,81,0,81,0,1,,,,,
,,,,,,,,,,,,,,,2,4,2020-12-11_09h07.42.935,Context_Learning_Pilot,2020.1.3,MacIntel,60,,,,,,,3,media/ddnb.png,1,Symb,l,RT,0,0,82,0,1,3,1.8,4,l,1,0.516835,82,0,82,0,1,,,,,
,,,,,,,,,,,,,,,2,4,2020-12-11_09h07.42.935,Context_Learning_Pilot,2020.1.3,MacIntel,60,,,,,,,2,media/dinb.png,1,Symb,h,RT,0,0,83,0,1,3,1.8,4,u,0,0.88918,83,0,83,0,1,,,,,
,,,,,,,,,,,,,,,2,4,2020-12-11_09h07.42.935,Context_Learning_Pilot,2020.1.3,MacIntel,60,,,,,,,0,media/djnb.png,1,Symb,u,RT,0,0,84,0,1,3,1.8,4,h,0,0.7558,84,0,84,0,1,,,,,
,,,,,,,,,,,,,,,2,4,2020-12-11_09h07.42.935,Context_Learning_Pilot,2020.1.3,MacIntel,60,,,,,,,1,media/dnnb.png,2,Symb,l,RT,0,0,85,0,1,3,1.8,4,l,1,0.5996,85,0,85,0,1,,,,,
,,,,,,,,,,,,,,,2,4,2020-12-11_09h07.42.935,Context_Learning_Pilot,2020.1.3,MacIntel,60,,,,,,,2,media/dinb.png,1,Symb,h,RT,0,0,86,0,1,3,1.8,4,h,1,0.64775,86,0,86,0,1,,,,,
,,,,,,,,,,,,,,,2,4,2020-12-11_09h07.42.935,Context_Learning_Pilot,2020.1.3,MacIntel,60,,,,,,,2,media/dinb.png,2,Symb,u,RT,0,0,87,0,1,3,1.8,4,h,0,0.528375,87,0,87,0,1,,,,,
,,,,,,,,,,,,,,,2,4,2020-12-11_09h07.42.935,Context_Learning_Pilot,2020.1.3,MacIntel,60,,,,,,,3,media/ddnb.png,2,Symb,i,RT,0,0,88,0,1,3,1.8,4,i,1,0.890615,88,0,88,0,1,,,,,
,,,,,,,,,,,,,,,2,4,2020-12-11_09h07.42.935,Context_Learning_Pilot,2020.1.3,MacIntel,60,,,,,,,0,media/djnb.png,1,Symb,u,RT,0,0,89,0,1,3,1.8,4,u,1,0.951905,89,0,89,0,1,,,,,
,,,,,,,,,,,,,,,2,4,2020-12-11_09h07.42.935,Context_Learning_Pilot,2020.1.3,MacIntel,60,,,,,,,1,media/dnnb.png,1,Symb,i,RT,0,0,90,0,1,3,1.8,4,i,1,1.024425,90,0,90,0,1,,,,,
,,,,,,,,,,,,,,,2,4,2020-12-11_09h07.42.935,Context_Learning_Pilot,2020.1.3,MacIntel,60,,,,,,,0,media/djnb.png,2,Symb,h,RT,0,0,91,0,1,3,1.8,4,h,1,0.68084,91,0,91,0,1,,,,,
,,,,,,,,,,,,,,,2,4,2020-12-11_09h07.42.935,Context_Learning_Pilot,2020.1.3,MacIntel,60,,,,,,,2,media/dinb.png,2,Symb,u,RT,0,0,92,0,1,3,1.8,4,u,1,0.78975,92,0,92,0,1,,,,,
,,,,,,,,,,,,,,,2,4,2020-12-11_09h07.42.935,Context_Learning_Pilot,2020.1.3,MacIntel,60,,,,,,,1,media/dnnb.png,1,Symb,i,RT,0,0,93,0,1,3,1.8,4,i,1,0.70121,93,0,93,0,1,,,,,
,,,,,,,,,,,,,,,2,4,2020-12-11_09h07.42.935,Context_Learning_Pilot,2020.1.3,MacIntel,60,,,,,,,0,media/djnb.png,2,Symb,h,RT,0,0,94,0,1,3,1.8,4,h,1,0.686555,94,0,94,0,1,,,,,
,,,,,,,,,,,,,,,2,4,2020-12-11_09h07.42.935,Context_Learning_Pilot,2020.1.3,MacIntel,60,,,,,,,3,media/ddnb.png,2,Symb,i,RT,0,0,95,0,1,3,1.8,4,i,1,0.8146,95,0,95,0,1,,,,,
,,,,,,,,,,,,,,,2,4,2020-12-11_09h07.42.935,Context_Learning_Pilot,2020.1.3,MacIntel,60,,,,,,,,,,,,,,,,,,,,,,,,,,,,,2,0,2,0,1
,,,,,,,,,,,,,,,2,4,2020-12-11_09h07.42.935,Context_Learning_Pilot,2020.1.3,MacIntel,60,,,,,h,2.13529,0,media/djnb.png,1,Symb,u,RT,0,0,0,0,1,4,1.8,4,u,1,0.90206,0,0,0,0,1,,,,,
,,,,,,,,,,,,,,,2,4,2020-12-11_09h07.42.935,Context_Learning_Pilot,2020.1.3,MacIntel,60,,,,,,,0,media/djnb.png,2,Symb,h,RT,0,0,1,0,1,4,1.8,4,h,1,0.615305,1,0,1,0,1,,,,,
,,,,,,,,,,,,,,,2,4,2020-12-11_09h07.42.935,Context_Learning_Pilot,2020.1.3,MacIntel,60,,,,,,,0,media/djnb.png,1,Symb,u,RT,0,0,2,0,1,4,1.8,4,u,1,0.630405,2,0,2,0,1,,,,,
,,,,,,,,,,,,,,,2,4,2020-12-11_09h07.42.935,Context_Learning_Pilot,2020.1.3,MacIntel,60,,,,,,,1,media/dnnb.png,1,Symb,i,RT,0,0,3,0,1,4,1.8,4,i,1,0.83991,3,0,3,0,1,,,,,
,,,,,,,,,,,,,,,2,4,2020-12-11_09h07.42.935,Context_Learning_Pilot,2020.1.3,MacIntel,60,,,,,,,0,media/djnb.png,2,Symb,h,RT,0,0,4,0,1,4,1.8,4,h,1,0.66875,4,0,4,0,1,,,,,
,,,,,,,,,,,,,,,2,4,2020-12-11_09h07.42.935,Context_Learning_Pilot,2020.1.3,MacIntel,60,,,,,,,2,media/dinb.png,1,Symb,h,RT,0,0,5,0,1,4,1.8,4,h,1,0.63286,5,0,5,0,1,,,,,
,,,,,,,,,,,,,,,2,4,2020-12-11_09h07.42.935,Context_Learning_Pilot,2020.1.3,MacIntel,60,,,,,,,3,media/ddnb.png,1,Symb,l,RT,0,0,6,0,1,4,1.8,4,l,1,0.9396,6,0,6,0,1,,,,,
,,,,,,,,,,,,,,,2,4,2020-12-11_09h07.42.935,Context_Learning_Pilot,2020.1.3,MacIntel,60,,,,,,,3,media/ddnb.png,1,Symb,l,RT,0,0,7,0,1,4,1.8,4,l,1,0.516495,7,0,7,0,1,,,,,
,,,,,,,,,,,,,,,2,4,2020-12-11_09h07.42.935,Context_Learning_Pilot,2020.1.3,MacIntel,60,,,,,,,1,media/dnnb.png,2,Symb,l,RT,0,0,8,0,1,4,1.8,4,l,1,0.749675,8,0,8,0,1,,,,,
,,,,,,,,,,,,,,,2,4,2020-12-11_09h07.42.935,Context_Learning_Pilot,2020.1.3,MacIntel,60,,,,,,,2,media/dinb.png,2,Symb,u,RT,0,0,9,0,1,4,1.8,4,h,0,0.61429,9,0,9,0,1,,,,,
,,,,,,,,,,,,,,,2,4,2020-12-11_09h07.42.935,Context_Learning_Pilot,2020.1.3,MacIntel,60,,,,,,,3,media/ddnb.png,2,Symb,i,RT,0,0,10,0,1,4,1.8,4,i,1,0.6624,10,0,10,0,1,,,,,
,,,,,,,,,,,,,,,2,4,2020-12-11_09h07.42.935,Context_Learning_Pilot,2020.1.3,MacIntel,60,,,,,,,1,media/dnnb.png,2,Symb,l,RT,0,0,11,0,1,4,1.8,4,l,1,0.873865,11,0,11,0,1,,,,,
,,,,,,,,,,,,,,,2,4,2020-12-11_09h07.42.935,Context_Learning_Pilot,2020.1.3,MacIntel,60,,,,,,,3,media/ddnb.png,2,Symb,i,RT,0,0,12,0,1,4,1.8,4,i,1,0.879705,12,0,12,0,1,,,,,
,,,,,,,,,,,,,,,2,4,2020-12-11_09h07.42.935,Context_Learning_Pilot,2020.1.3,MacIntel,60,,,,,,,1,media/dnnb.png,1,Symb,i,RT,0,0,13,0,1,4,1.8,4,i,1,1.157005,13,0,13,0,1,,,,,
,,,,,,,,,,,,,,,2,4,2020-12-11_09h07.42.935,Context_Learning_Pilot,2020.1.3,MacIntel,60,,,,,,,2,media/dinb.png,2,Symb,u,RT,0,0,14,0,1,4,1.8,4,u,1,0.89201,14,0,14,0,1,,,,,
,,,,,,,,,,,,,,,2,4,2020-12-11_09h07.42.935,Context_Learning_Pilot,2020.1.3,MacIntel,60,,,,,,,2,media/dinb.png,1,Symb,h,RT,0,0,15,0,1,4,1.8,4,h,1,0.679365,15,0,15,0,1,,,,,
,,,,,,,,,,,,,,,2,4,2020-12-11_09h07.42.935,Context_Learning_Pilot,2020.1.3,MacIntel,60,,,,,,,0,media/djnb.png,1,Symb,u,RT,0,0,16,0,1,4,1.8,4,u,1,1.124495,16,0,16,0,1,,,,,
,,,,,,,,,,,,,,,2,4,2020-12-11_09h07.42.935,Context_Learning_Pilot,2020.1.3,MacIntel,60,,,,,,,3,media/ddnb.png,2,Symb,i,RT,0,0,17,0,1,4,1.8,4,i,1,0.883935,17,0,17,0,1,,,,,
,,,,,,,,,,,,,,,2,4,2020-12-11_09h07.42.935,Context_Learning_Pilot,2020.1.3,MacIntel,60,,,,,,,3,media/ddnb.png,2,Symb,i,RT,0,0,18,0,1,4,1.8,4,i,1,0.47737,18,0,18,0,1,,,,,
,,,,,,,,,,,,,,,2,4,2020-12-11_09h07.42.935,Context_Learning_Pilot,2020.1.3,MacIntel,60,,,,,,,3,media/ddnb.png,1,Symb,l,RT,0,0,19,0,1,4,1.8,4,l,1,0.69984,19,0,19,0,1,,,,,
,,,,,,,,,,,,,,,2,4,2020-12-11_09h07.42.935,Context_Learning_Pilot,2020.1.3,MacIntel,60,,,,,,,0,media/djnb.png,2,Symb,h,RT,0,0,20,0,1,4,1.8,4,h,1,0.611925,20,0,20,0,1,,,,,
,,,,,,,,,,,,,,,2,4,2020-12-11_09h07.42.935,Context_Learning_Pilot,2020.1.3,MacIntel,60,,,,,,,1,media/dnnb.png,2,Symb,l,RT,0,0,21,0,1,4,1.8,4,l,1,0.67908,21,0,21,0,1,,,,,
,,,,,,,,,,,,,,,2,4,2020-12-11_09h07.42.935,Context_Learning_Pilot,2020.1.3,MacIntel,60,,,,,,,2,media/dinb.png,1,Symb,h,RT,0,0,22,0,1,4,1.8,4,h,1,0.625635,22,0,22,0,1,,,,,
,,,,,,,,,,,,,,,2,4,2020-12-11_09h07.42.935,Context_Learning_Pilot,2020.1.3,MacIntel,60,,,,,,,0,media/djnb.png,1,Symb,u,RT,0,0,23,0,1,4,1.8,4,u,1,0.7834,23,0,23,0,1,,,,,
,,,,,,,,,,,,,,,2,4,2020-12-11_09h07.42.935,Context_Learning_Pilot,2020.1.3,MacIntel,60,,,,,,,2,media/dinb.png,1,Symb,h,RT,0,0,24,0,1,4,1.8,4,u,0,0.74911,24,0,24,0,1,,,,,
,,,,,,,,,,,,,,,2,4,2020-12-11_09h07.42.935,Context_Learning_Pilot,2020.1.3,MacIntel,60,,,,,,,1,media/dnnb.png,1,Symb,i,RT,0,0,25,0,1,4,1.8,4,i,1,1.08826,25,0,25,0,1,,,,,
,,,,,,,,,,,,,,,2,4,2020-12-11_09h07.42.935,Context_Learning_Pilot,2020.1.3,MacIntel,60,,,,,,,2,media/dinb.png,2,Symb,u,RT,0,0,26,0,1,4,1.8,4,h,0,0.82367,26,0,26,0,1,,,,,
,,,,,,,,,,,,,,,2,4,2020-12-11_09h07.42.935,Context_Learning_Pilot,2020.1.3,MacIntel,60,,,,,,,3,media/ddnb.png,1,Symb,l,RT,0,0,27,0,1,4,1.8,4,l,1,0.707605,27,0,27,0,1,,,,,
,,,,,,,,,,,,,,,2,4,2020-12-11_09h07.42.935,Context_Learning_Pilot,2020.1.3,MacIntel,60,,,,,,,0,media/djnb.png,2,Symb,h,RT,0,0,28,0,1,4,1.8,4,h,1,0.93211,28,0,28,0,1,,,,,
,,,,,,,,,,,,,,,2,4,2020-12-11_09h07.42.935,Context_Learning_Pilot,2020.1.3,MacIntel,60,,,,,,,1,media/dnnb.png,1,Symb,i,RT,0,0,29,0,1,4,1.8,4,i,1,0.94143,29,0,29,0,1,,,,,
,,,,,,,,,,,,,,,2,4,2020-12-11_09h07.42.935,Context_Learning_Pilot,2020.1.3,MacIntel,60,,,,,,,1,media/dnnb.png,2,Symb,l,RT,0,0,30,0,1,4,1.8,4,l,1,0.86461,30,0,30,0,1,,,,,
,,,,,,,,,,,,,,,2,4,2020-12-11_09h07.42.935,Context_Learning_Pilot,2020.1.3,MacIntel,60,,,,,,,2,media/dinb.png,2,Symb,u,RT,0,0,31,0,1,4,1.8,4,h,0,0.70249,31,0,31,0,1,,,,,
,,,,,,,,,,,,,,,2,4,2020-12-11_09h07.42.935,Context_Learning_Pilot,2020.1.3,MacIntel,60,,,,,,,3,media/ddnb.png,1,Symb,l,RT,0,0,32,0,1,4,1.8,4,l,1,0.75692,32,0,32,0,1,,,,,
,,,,,,,,,,,,,,,2,4,2020-12-11_09h07.42.935,Context_Learning_Pilot,2020.1.3,MacIntel,60,,,,,,,1,media/dnnb.png,2,Symb,l,RT,0,0,33,0,1,4,1.8,4,i,0,0.661865,33,0,33,0,1,,,,,
,,,,,,,,,,,,,,,2,4,2020-12-11_09h07.42.935,Context_Learning_Pilot,2020.1.3,MacIntel,60,,,,,,,0,media/djnb.png,2,Symb,h,RT,0,0,34,0,1,4,1.8,4,h,1,0.65955,34,0,34,0,1,,,,,
,,,,,,,,,,,,,,,2,4,2020-12-11_09h07.42.935,Context_Learning_Pilot,2020.1.3,MacIntel,60,,,,,,,2,media/dinb.png,2,Symb,u,RT,0,0,35,0,1,4,1.8,4,u,1,0.86423,35,0,35,0,1,,,,,
,,,,,,,,,,,,,,,2,4,2020-12-11_09h07.42.935,Context_Learning_Pilot,2020.1.3,MacIntel,60,,,,,,,0,media/djnb.png,1,Symb,u,RT,0,0,36,0,1,4,1.8,4,u,1,2.333835,36,0,36,0,1,,,,,
,,,,,,,,,,,,,,,2,4,2020-12-11_09h07.42.935,Context_Learning_Pilot,2020.1.3,MacIntel,60,,,,,,,0,media/djnb.png,1,Symb,u,RT,0,0,37,0,1,4,1.8,4,u,1,0.525105,37,0,37,0,1,,,,,
,,,,,,,,,,,,,,,2,4,2020-12-11_09h07.42.935,Context_Learning_Pilot,2020.1.3,MacIntel,60,,,,,,,3,media/ddnb.png,2,Symb,i,RT,0,0,38,0,1,4,1.8,4,i,1,2.057105,38,0,38,0,1,,,,,
,,,,,,,,,,,,,,,2,4,2020-12-11_09h07.42.935,Context_Learning_Pilot,2020.1.3,MacIntel,60,,,,,,,3,media/ddnb.png,1,Symb,l,RT,0,0,39,0,1,4,1.8,4,l,1,0.66307,39,0,39,0,1,,,,,
,,,,,,,,,,,,,,,2,4,2020-12-11_09h07.42.935,Context_Learning_Pilot,2020.1.3,MacIntel,60,,,,,,,2,media/dinb.png,2,Symb,u,RT,0,0,40,0,1,4,1.8,4,u,1,0.89727,40,0,40,0,1,,,,,
,,,,,,,,,,,,,,,2,4,2020-12-11_09h07.42.935,Context_Learning_Pilot,2020.1.3,MacIntel,60,,,,,,,2,media/dinb.png,1,Symb,h,RT,0,0,41,0,1,4,1.8,4,h,1,1.00551,41,0,41,0,1,,,,,
,,,,,,,,,,,,,,,2,4,2020-12-11_09h07.42.935,Context_Learning_Pilot,2020.1.3,MacIntel,60,,,,,,,1,media/dnnb.png,2,Symb,l,RT,0,0,42,0,1,4,1.8,4,l,1,0.648405,42,0,42,0,1,,,,,
,,,,,,,,,,,,,,,2,4,2020-12-11_09h07.42.935,Context_Learning_Pilot,2020.1.3,MacIntel,60,,,,,,,3,media/ddnb.png,2,Symb,i,RT,0,0,43,0,1,4,1.8,4,i,1,1.87414,43,0,43,0,1,,,,,
,,,,,,,,,,,,,,,2,4,2020-12-11_09h07.42.935,Context_Learning_Pilot,2020.1.3,MacIntel,60,,,,,,,0,media/djnb.png,2,Symb,h,RT,0,0,44,0,1,4,1.8,4,h,1,0.75742,44,0,44,0,1,,,,,
,,,,,,,,,,,,,,,2,4,2020-12-11_09h07.42.935,Context_Learning_Pilot,2020.1.3,MacIntel,60,,,,,,,2,media/dinb.png,1,Symb,h,RT,0,0,45,0,1,4,1.8,4,h,1,1.021385,45,0,45,0,1,,,,,
,,,,,,,,,,,,,,,2,4,2020-12-11_09h07.42.935,Context_Learning_Pilot,2020.1.3,MacIntel,60,,,,,,,1,media/dnnb.png,1,Symb,i,RT,0,0,46,0,1,4,1.8,4,i,1,0.68827,46,0,46,0,1,,,,,
,,,,,,,,,,,,,,,2,4,2020-12-11_09h07.42.935,Context_Learning_Pilot,2020.1.3,MacIntel,60,,,,,,,1,media/dnnb.png,1,Symb,i,RT,0,0,47,0,1,4,1.8,4,i,1,1.54069,47,0,47,0,1,,,,,
,,,,,,,,,,,,,,,2,4,2020-12-11_09h07.42.935,Context_Learning_Pilot,2020.1.3,MacIntel,60,,,,,,,0,media/djnb.png,1,Symb,u,RT,0,0,48,0,1,4,1.8,4,u,1,0.790435,48,0,48,0,1,,,,,
,,,,,,,,,,,,,,,2,4,2020-12-11_09h07.42.935,Context_Learning_Pilot,2020.1.3,MacIntel,60,,,,,,,3,media/ddnb.png,2,Symb,i,RT,0,0,49,0,1,4,1.8,4,i,1,1.051635,49,0,49,0,1,,,,,
,,,,,,,,,,,,,,,2,4,2020-12-11_09h07.42.935,Context_Learning_Pilot,2020.1.3,MacIntel,60,,,,,,,0,media/djnb.png,2,Symb,h,RT,0,0,50,0,1,4,1.8,4,h,1,0.86345,50,0,50,0,1,,,,,
,,,,,,,,,,,,,,,2,4,2020-12-11_09h07.42.935,Context_Learning_Pilot,2020.1.3,MacIntel,60,,,,,,,1,media/dnnb.png,1,Symb,i,RT,0,0,51,0,1,4,1.8,4,i,1,0.87053,51,0,51,0,1,,,,,
,,,,,,,,,,,,,,,2,4,2020-12-11_09h07.42.935,Context_Learning_Pilot,2020.1.3,MacIntel,60,,,,,,,3,media/ddnb.png,1,Symb,l,RT,0,0,52,0,1,4,1.8,4,l,1,0.81629,52,0,52,0,1,,,,,
,,,,,,,,,,,,,,,2,4,2020-12-11_09h07.42.935,Context_Learning_Pilot,2020.1.3,MacIntel,60,,,,,,,0,media/djnb.png,2,Symb,h,RT,0,0,53,0,1,4,1.8,4,h,1,0.79195,53,0,53,0,1,,,,,
,,,,,,,,,,,,,,,2,4,2020-12-11_09h07.42.935,Context_Learning_Pilot,2020.1.3,MacIntel,60,,,,,,,0,media/djnb.png,1,Symb,u,RT,0,0,54,0,1,4,1.8,4,u,1,0.67936,54,0,54,0,1,,,,,
,,,,,,,,,,,,,,,2,4,2020-12-11_09h07.42.935,Context_Learning_Pilot,2020.1.3,MacIntel,60,,,,,,,2,media/dinb.png,1,Symb,h,RT,0,0,55,0,1,4,1.8,4,h,1,0.61624,55,0,55,0,1,,,,,
,,,,,,,,,,,,,,,2,4,2020-12-11_09h07.42.935,Context_Learning_Pilot,2020.1.3,MacIntel,60,,,,,,,1,media/dnnb.png,1,Symb,i,RT,0,0,56,0,1,4,1.8,4,i,1,0.763985,56,0,56,0,1,,,,,
,,,,,,,,,,,,,,,2,4,2020-12-11_09h07.42.935,Context_Learning_Pilot,2020.1.3,MacIntel,60,,,,,,,2,media/dinb.png,2,Symb,u,RT,0,0,57,0,1,4,1.8,4,u,1,0.860585,57,0,57,0,1,,,,,
,,,,,,,,,,,,,,,2,4,2020-12-11_09h07.42.935,Context_Learning_Pilot,2020.1.3,MacIntel,60,,,,,,,3,media/ddnb.png,1,Symb,l,RT,0,0,58,0,1,4,1.8,4,l,1,0.770915,58,0,58,0,1,,,,,
,,,,,,,,,,,,,,,2,4,2020-12-11_09h07.42.935,Context_Learning_Pilot,2020.1.3,MacIntel,60,,,,,,,1,media/dnnb.png,2,Symb,l,RT,0,0,59,0,1,4,1.8,4,l,1,0.624415,59,0,59,0,1,,,,,
,,,,,,,,,,,,,,,2,4,2020-12-11_09h07.42.935,Context_Learning_Pilot,2020.1.3,MacIntel,60,,,,,,,2,media/dinb.png,2,Symb,u,RT,0,0,60,0,1,4,1.8,4,u,1,0.808535,60,0,60,0,1,,,,,
,,,,,,,,,,,,,,,2,4,2020-12-11_09h07.42.935,Context_Learning_Pilot,2020.1.3,MacIntel,60,,,,,,,1,media/dnnb.png,2,Symb,l,RT,0,0,61,0,1,4,1.8,4,l,1,0.80296,61,0,61,0,1,,,,,
,,,,,,,,,,,,,,,2,4,2020-12-11_09h07.42.935,Context_Learning_Pilot,2020.1.3,MacIntel,60,,,,,,,3,media/ddnb.png,2,Symb,i,RT,0,0,62,0,1,4,1.8,4,i,1,0.676675,62,0,62,0,1,,,,,
,,,,,,,,,,,,,,,2,4,2020-12-11_09h07.42.935,Context_Learning_Pilot,2020.1.3,MacIntel,60,,,,,,,2,media/dinb.png,1,Symb,h,RT,0,0,63,0,1,4,1.8,4,h,1,0.755685,63,0,63,0,1,,,,,
,,,,,,,,,,,,,,,2,4,2020-12-11_09h07.42.935,Context_Learning_Pilot,2020.1.3,MacIntel,60,,,,,,,2,media/dinb.png,1,Symb,h,RT,0,0,64,0,1,4,1.8,4,h,1,0.62623,64,0,64,0,1,,,,,
,,,,,,,,,,,,,,,2,4,2020-12-11_09h07.42.935,Context_Learning_Pilot,2020.1.3,MacIntel,60,,,,,,,1,media/dnnb.png,2,Symb,l,RT,0,0,65,0,1,4,1.8,4,l,1,1.15479,65,0,65,0,1,,,,,
,,,,,,,,,,,,,,,2,4,2020-12-11_09h07.42.935,Context_Learning_Pilot,2020.1.3,MacIntel,60,,,,,,,1,media/dnnb.png,1,Symb,i,RT,0,0,66,0,1,4,1.8,4,i,1,0.61937,66,0,66,0,1,,,,,
,,,,,,,,,,,,,,,2,4,2020-12-11_09h07.42.935,Context_Learning_Pilot,2020.1.3,MacIntel,60,,,,,,,2,media/dinb.png,2,Symb,u,RT,0,0,67,0,1,4,1.8,4,u,1,0.842265,67,0,67,0,1,,,,,
,,,,,,,,,,,,,,,2,4,2020-12-11_09h07.42.935,Context_Learning_Pilot,2020.1.3,MacIntel,60,,,,,,,1,media/dnnb.png,2,Symb,l,RT,0,0,68,0,1,4,1.8,4,l,1,0.70984,68,0,68,0,1,,,,,
,,,,,,,,,,,,,,,2,4,2020-12-11_09h07.42.935,Context_Learning_Pilot,2020.1.3,MacIntel,60,,,,,,,0,media/djnb.png,2,Symb,h,RT,0,0,69,0,1,4,1.8,4,h,1,0.651755,69,0,69,0,1,,,,,
,,,,,,,,,,,,,,,2,4,2020-12-11_09h07.42.935,Context_Learning_Pilot,2020.1.3,MacIntel,60,,,,,,,2,media/dinb.png,2,Symb,u,RT,0,0,70,0,1,4,1.8,4,u,1,0.873165,70,0,70,0,1,,,,,
,,,,,,,,,,,,,,,2,4,2020-12-11_09h07.42.935,Context_Learning_Pilot,2020.1.3,MacIntel,60,,,,,,,3,media/ddnb.png,2,Symb,i,RT,0,0,71,0,1,4,1.8,4,i,1,0.732555,71,0,71,0,1,,,,,
,,,,,,,,,,,,,,,2,4,2020-12-11_09h07.42.935,Context_Learning_Pilot,2020.1.3,MacIntel,60,,,,,,,2,media/dinb.png,1,Symb,h,RT,0,0,72,0,1,4,1.8,4,h,1,0.86542,72,0,72,0,1,,,,,
,,,,,,,,,,,,,,,2,4,2020-12-11_09h07.42.935,Context_Learning_Pilot,2020.1.3,MacIntel,60,,,,,,,1,media/dnnb.png,1,Symb,i,RT,0,0,73,0,1,4,1.8,4,i,1,0.863855,73,0,73,0,1,,,,,
,,,,,,,,,,,,,,,2,4,2020-12-11_09h07.42.935,Context_Learning_Pilot,2020.1.3,MacIntel,60,,,,,,,3,media/ddnb.png,2,Symb,i,RT,0,0,74,0,1,4,1.8,4,i,1,0.77938,74,0,74,0,1,,,,,
,,,,,,,,,,,,,,,2,4,2020-12-11_09h07.42.935,Context_Learning_Pilot,2020.1.3,MacIntel,60,,,,,,,3,media/ddnb.png,1,Symb,l,RT,0,0,75,0,1,4,1.8,4,l,1,0.77011,75,0,75,0,1,,,,,
,,,,,,,,,,,,,,,2,4,2020-12-11_09h07.42.935,Context_Learning_Pilot,2020.1.3,MacIntel,60,,,,,,,0,media/djnb.png,1,Symb,u,RT,0,0,76,0,1,4,1.8,4,u,1,0.629985,76,0,76,0,1,,,,,
,,,,,,,,,,,,,,,2,4,2020-12-11_09h07.42.935,Context_Learning_Pilot,2020.1.3,MacIntel,60,,,,,,,3,media/ddnb.png,1,Symb,l,RT,0,0,77,0,1,4,1.8,4,i,0,1.166335,77,0,77,0,1,,,,,
,,,,,,,,,,,,,,,2,4,2020-12-11_09h07.42.935,Context_Learning_Pilot,2020.1.3,MacIntel,60,,,,,,,0,media/djnb.png,2,Symb,h,RT,0,0,78,0,1,4,1.8,4,h,1,0.63883,78,0,78,0,1,,,,,
,,,,,,,,,,,,,,,2,4,2020-12-11_09h07.42.935,Context_Learning_Pilot,2020.1.3,MacIntel,60,,,,,,,0,media/djnb.png,1,Symb,u,RT,0,0,79,0,1,4,1.8,4,u,1,1.54984,79,0,79,0,1,,,,,
,,,,,,,,,,,,,,,2,4,2020-12-11_09h07.42.935,Context_Learning_Pilot,2020.1.3,MacIntel,60,,,,,,,0,media/djnb.png,2,Symb,h,RT,0,0,80,0,1,4,1.8,4,h,1,0.617665,80,0,80,0,1,,,,,
,,,,,,,,,,,,,,,2,4,2020-12-11_09h07.42.935,Context_Learning_Pilot,2020.1.3,MacIntel,60,,,,,,,1,media/dnnb.png,2,Symb,l,RT,0,0,81,0,1,4,1.8,4,l,1,0.71269,81,0,81,0,1,,,,,
,,,,,,,,,,,,,,,2,4,2020-12-11_09h07.42.935,Context_Learning_Pilot,2020.1.3,MacIntel,60,,,,,,,3,media/ddnb.png,2,Symb,i,RT,0,0,82,0,1,4,1.8,4,i,1,0.67652,82,0,82,0,1,,,,,
,,,,,,,,,,,,,,,2,4,2020-12-11_09h07.42.935,Context_Learning_Pilot,2020.1.3,MacIntel,60,,,,,,,1,media/dnnb.png,2,Symb,l,RT,0,0,83,0,1,4,1.8,4,l,1,0.89145,83,0,83,0,1,,,,,
,,,,,,,,,,,,,,,2,4,2020-12-11_09h07.42.935,Context_Learning_Pilot,2020.1.3,MacIntel,60,,,,,,,2,media/dinb.png,1,Symb,h,RT,0,0,84,0,1,4,1.8,4,h,1,0.665275,84,0,84,0,1,,,,,
,,,,,,,,,,,,,,,2,4,2020-12-11_09h07.42.935,Context_Learning_Pilot,2020.1.3,MacIntel,60,,,,,,,2,media/dinb.png,2,Symb,u,RT,0,0,85,0,1,4,1.8,4,u,1,0.679765,85,0,85,0,1,,,,,
,,,,,,,,,,,,,,,2,4,2020-12-11_09h07.42.935,Context_Learning_Pilot,2020.1.3,MacIntel,60,,,,,,,1,media/dnnb.png,1,Symb,i,RT,0,0,86,0,1,4,1.8,4,i,1,0.75642,86,0,86,0,1,,,,,
,,,,,,,,,,,,,,,2,4,2020-12-11_09h07.42.935,Context_Learning_Pilot,2020.1.3,MacIntel,60,,,,,,,3,media/ddnb.png,1,Symb,l,RT,0,0,87,0,1,4,1.8,4,l,1,1.06774,87,0,87,0,1,,,,,
,,,,,,,,,,,,,,,2,4,2020-12-11_09h07.42.935,Context_Learning_Pilot,2020.1.3,MacIntel,60,,,,,,,2,media/dinb.png,1,Symb,h,RT,0,0,88,0,1,4,1.8,4,h,1,1.067575,88,0,88,0,1,,,,,
,,,,,,,,,,,,,,,2,4,2020-12-11_09h07.42.935,Context_Learning_Pilot,2020.1.3,MacIntel,60,,,,,,,3,media/ddnb.png,1,Symb,l,RT,0,0,89,0,1,4,1.8,4,u,0,0.810905,89,0,89,0,1,,,,,
,,,,,,,,,,,,,,,2,4,2020-12-11_09h07.42.935,Context_Learning_Pilot,2020.1.3,MacIntel,60,,,,,,,2,media/dinb.png,2,Symb,u,RT,0,0,90,0,1,4,1.8,4,h,0,1.97759,90,0,90,0,1,,,,,
,,,,,,,,,,,,,,,2,4,2020-12-11_09h07.42.935,Context_Learning_Pilot,2020.1.3,MacIntel,60,,,,,,,0,media/djnb.png,1,Symb,u,RT,0,0,91,0,1,4,1.8,4,u,1,1.050665,91,0,91,0,1,,,,,
,,,,,,,,,,,,,,,2,4,2020-12-11_09h07.42.935,Context_Learning_Pilot,2020.1.3,MacIntel,60,,,,,,,0,media/djnb.png,2,Symb,h,RT,0,0,92,0,1,4,1.8,4,h,1,1.024465,92,0,92,0,1,,,,,
,,,,,,,,,,,,,,,2,4,2020-12-11_09h07.42.935,Context_Learning_Pilot,2020.1.3,MacIntel,60,,,,,,,0,media/djnb.png,1,Symb,u,RT,0,0,93,0,1,4,1.8,4,u,1,1.175075,93,0,93,0,1,,,,,
,,,,,,,,,,,,,,,2,4,2020-12-11_09h07.42.935,Context_Learning_Pilot,2020.1.3,MacIntel,60,,,,,,,3,media/ddnb.png,2,Symb,i,RT,0,0,94,0,1,4,1.8,4,i,1,0.76804,94,0,94,0,1,,,,,
,,,,,,,,,,,,,,,2,4,2020-12-11_09h07.42.935,Context_Learning_Pilot,2020.1.3,MacIntel,60,,,,,,,1,media/dnnb.png,1,Symb,i,RT,0,0,95,0,1,4,1.8,4,i,1,0.825525,95,0,95,0,1,,,,,
,,,,,,,,,,,,,,,2,4,2020-12-11_09h07.42.935,Context_Learning_Pilot,2020.1.3,MacIntel,60,,,,,,,,,,,,,,,,,,,,,,,,,,,,,3,0,3,0,1
,,,,,,,,,,,,,,,2,4,2020-12-11_09h07.42.935,Context_Learning_Pilot,2020.1.3,MacIntel,60,,,,,h,7.347105,0,media/djnb.png,2,Symb,h,RT,0,0,0,0,1,5,1.8,4,h,1,0.650425,0,0,0,0,1,,,,,
,,,,,,,,,,,,,,,2,4,2020-12-11_09h07.42.935,Context_Learning_Pilot,2020.1.3,MacIntel,60,,,,,,,1,media/dnnb.png,1,Symb,i,RT,0,0,1,0,1,5,1.8,4,i,1,0.721835,1,0,1,0,1,,,,,
,,,,,,,,,,,,,,,2,4,2020-12-11_09h07.42.935,Context_Learning_Pilot,2020.1.3,MacIntel,60,,,,,,,3,media/ddnb.png,2,Symb,i,RT,0,0,2,0,1,5,1.8,4,i,1,0.69208,2,0,2,0,1,,,,,
,,,,,,,,,,,,,,,2,4,2020-12-11_09h07.42.935,Context_Learning_Pilot,2020.1.3,MacIntel,60,,,,,,,0,media/djnb.png,1,Symb,u,RT,0,0,3,0,1,5,1.8,4,u,1,0.600425,3,0,3,0,1,,,,,
,,,,,,,,,,,,,,,2,4,2020-12-11_09h07.42.935,Context_Learning_Pilot,2020.1.3,MacIntel,60,,,,,,,0,media/djnb.png,2,Symb,h,RT,0,0,4,0,1,5,1.8,4,h,1,1.06596,4,0,4,0,1,,,,,
,,,,,,,,,,,,,,,2,4,2020-12-11_09h07.42.935,Context_Learning_Pilot,2020.1.3,MacIntel,60,,,,,,,2,media/dinb.png,2,Symb,u,RT,0,0,5,0,1,5,1.8,4,u,1,1.044685,5,0,5,0,1,,,,,
,,,,,,,,,,,,,,,2,4,2020-12-11_09h07.42.935,Context_Learning_Pilot,2020.1.3,MacIntel,60,,,,,,,1,media/dnnb.png,2,Symb,l,RT,0,0,6,0,1,5,1.8,4,l,1,1.00962,6,0,6,0,1,,,,,
,,,,,,,,,,,,,,,2,4,2020-12-11_09h07.42.935,Context_Learning_Pilot,2020.1.3,MacIntel,60,,,,,,,3,media/ddnb.png,1,Symb,l,RT,0,0,7,0,1,5,1.8,4,l,1,0.85837,7,0,7,0,1,,,,,
,,,,,,,,,,,,,,,2,4,2020-12-11_09h07.42.935,Context_Learning_Pilot,2020.1.3,MacIntel,60,,,,,,,2,media/dinb.png,1,Symb,h,RT,0,0,8,0,1,5,1.8,4,h,1,0.853935,8,0,8,0,1,,,,,
,,,,,,,,,,,,,,,2,4,2020-12-11_09h07.42.935,Context_Learning_Pilot,2020.1.3,MacIntel,60,,,,,,,1,media/dnnb.png,1,Symb,i,RT,0,0,9,0,1,5,1.8,4,i,1,1.14903,9,0,9,0,1,,,,,
,,,,,,,,,,,,,,,2,4,2020-12-11_09h07.42.935,Context_Learning_Pilot,2020.1.3,MacIntel,60,,,,,,,3,media/ddnb.png,2,Symb,i,RT,0,0,10,0,1,5,1.8,4,i,1,0.696815,10,0,10,0,1,,,,,
,,,,,,,,,,,,,,,2,4,2020-12-11_09h07.42.935,Context_Learning_Pilot,2020.1.3,MacIntel,60,,,,,,,3,media/ddnb.png,1,Symb,l,RT,0,0,11,0,1,5,1.8,4,l,1,0.667885,11,0,11,0,1,,,,,
,,,,,,,,,,,,,,,2,4,2020-12-11_09h07.42.935,Context_Learning_Pilot,2020.1.3,MacIntel,60,,,,,,,2,media/dinb.png,1,Symb,h,RT,0,0,12,0,1,5,1.8,4,u,0,1.20225,12,0,12,0,1,,,,,
,,,,,,,,,,,,,,,2,4,2020-12-11_09h07.42.935,Context_Learning_Pilot,2020.1.3,MacIntel,60,,,,,,,2,media/dinb.png,2,Symb,u,RT,0,0,13,0,1,5,1.8,4,u,1,0.901525,13,0,13,0,1,,,,,
,,,,,,,,,,,,,,,2,4,2020-12-11_09h07.42.935,Context_Learning_Pilot,2020.1.3,MacIntel,60,,,,,,,0,media/djnb.png,1,Symb,u,RT,0,0,14,0,1,5,1.8,4,u,1,0.884075,14,0,14,0,1,,,,,
,,,,,,,,,,,,,,,2,4,2020-12-11_09h07.42.935,Context_Learning_Pilot,2020.1.3,MacIntel,60,,,,,,,1,media/dnnb.png,2,Symb,l,RT,0,0,15,0,1,5,1.8,4,l,1,0.633805,15,0,15,0,1,,,,,
,,,,,,,,,,,,,,,2,4,2020-12-11_09h07.42.935,Context_Learning_Pilot,2020.1.3,MacIntel,60,,,,,,,1,media/dnnb.png,1,Symb,i,RT,0,0,16,0,1,5,1.8,4,i,1,0.63821,16,0,16,0,1,,,,,
,,,,,,,,,,,,,,,2,4,2020-12-11_09h07.42.935,Context_Learning_Pilot,2020.1.3,MacIntel,60,,,,,,,3,media/ddnb.png,2,Symb,i,RT,0,0,17,0,1,5,1.8,4,i,1,0.784965,17,0,17,0,1,,,,,
,,,,,,,,,,,,,,,2,4,2020-12-11_09h07.42.935,Context_Learning_Pilot,2020.1.3,MacIntel,60,,,,,,,2,media/dinb.png,1,Symb,h,RT,0,0,18,0,1,5,1.8,4,h,1,0.645275,18,0,18,0,1,,,,,
,,,,,,,,,,,,,,,2,4,2020-12-11_09h07.42.935,Context_Learning_Pilot,2020.1.3,MacIntel,60,,,,,,,0,media/djnb.png,2,Symb,h,RT,0,0,19,0,1,5,1.8,4,u,0,0.80173,19,0,19,0,1,,,,,
,,,,,,,,,,,,,,,2,4,2020-12-11_09h07.42.935,Context_Learning_Pilot,2020.1.3,MacIntel,60,,,,,,,2,media/dinb.png,2,Symb,u,RT,0,0,20,0,1,5,1.8,4,u,1,1.50225,20,0,20,0,1,,,,,
,,,,,,,,,,,,,,,2,4,2020-12-11_09h07.42.935,Context_Learning_Pilot,2020.1.3,MacIntel,60,,,,,,,2,media/dinb.png,2,Symb,u,RT,0,0,21,0,1,5,1.8,4,u,1,0.510885,21,0,21,0,1,,,,,
,,,,,,,,,,,,,,,2,4,2020-12-11_09h07.42.935,Context_Learning_Pilot,2020.1.3,MacIntel,60,,,,,,,1,media/dnnb.png,2,Symb,l,RT,0,0,22,0,1,5,1.8,4,l,1,0.75477,22,0,22,0,1,,,,,
,,,,,,,,,,,,,,,2,4,2020-12-11_09h07.42.935,Context_Learning_Pilot,2020.1.3,MacIntel,60,,,,,,,0,media/djnb.png,1,Symb,u,RT,0,0,23,0,1,5,1.8,4,u,1,1.176655,23,0,23,0,1,,,,,
,,,,,,,,,,,,,,,2,4,2020-12-11_09h07.42.935,Context_Learning_Pilot,2020.1.3,MacIntel,60,,,,,,,1,media/dnnb.png,1,Symb,i,RT,0,0,24,0,1,5,1.8,4,i,1,1.329725,24,0,24,0,1,,,,,
,,,,,,,,,,,,,,,2,4,2020-12-11_09h07.42.935,Context_Learning_Pilot,2020.1.3,MacIntel,60,,,,,,,2,media/dinb.png,1,Symb,h,RT,0,0,25,0,1,5,1.8,4,h,1,0.92557,25,0,25,0,1,,,,,
,,,,,,,,,,,,,,,2,4,2020-12-11_09h07.42.935,Context_Learning_Pilot,2020.1.3,MacIntel,60,,,,,,,1,media/dnnb.png,2,Symb,l,RT,0,0,26,0,1,5,1.8,4,l,1,1.33115,26,0,26,0,1,,,,,
,,,,,,,,,,,,,,,2,4,2020-12-11_09h07.42.935,Context_Learning_Pilot,2020.1.3,MacIntel,60,,,,,,,3,media/ddnb.png,2,Symb,i,RT,0,0,27,0,1,5,1.8,4,u,0,0.952885,27,0,27,0,1,,,,,
,,,,,,,,,,,,,,,2,4,2020-12-11_09h07.42.935,Context_Learning_Pilot,2020.1.3,MacIntel,60,,,,,,,3,media/ddnb.png,1,Symb,l,RT,0,0,28,0,1,5,1.8,4,l,1,0.84653,28,0,28,0,1,,,,,
,,,,,,,,,,,,,,,2,4,2020-12-11_09h07.42.935,Context_Learning_Pilot,2020.1.3,MacIntel,60,,,,,,,0,media/djnb.png,1,Symb,u,RT,0,0,29,0,1,5,1.8,4,u,1,0.733395,29,0,29,0,1,,,,,
,,,,,,,,,,,,,,,2,4,2020-12-11_09h07.42.935,Context_Learning_Pilot,2020.1.3,MacIntel,60,,,,,,,3,media/ddnb.png,1,Symb,l,RT,0,0,30,0,1,5,1.8,4,l,1,1.14349,30,0,30,0,1,,,,,
,,,,,,,,,,,,,,,2,4,2020-12-11_09h07.42.935,Context_Learning_Pilot,2020.1.3,MacIntel,60,,,,,,,0,media/djnb.png,2,Symb,h,RT,0,0,31,0,1,5,1.8,4,h,1,1.07465,31,0,31,0,1,,,,,
,,,,,,,,,,,,,,,2,4,2020-12-11_09h07.42.935,Context_Learning_Pilot,2020.1.3,MacIntel,60,,,,,,,2,media/dinb.png,1,Symb,h,RT,0,0,32,0,1,5,1.8,4,h,1,1.13303,32,0,32,0,1,,,,,
,,,,,,,,,,,,,,,2,4,2020-12-11_09h07.42.935,Context_Learning_Pilot,2020.1.3,MacIntel,60,,,,,,,1,media/dnnb.png,2,Symb,l,RT,0,0,33,0,1,5,1.8,4,l,1,0.92263,33,0,33,0,1,,,,,
,,,,,,,,,,,,,,,2,4,2020-12-11_09h07.42.935,Context_Learning_Pilot,2020.1.3,MacIntel,60,,,,,,,2,media/dinb.png,2,Symb,u,RT,0,0,34,0,1,5,1.8,4,u,1,2.0655,34,0,34,0,1,,,,,
,,,,,,,,,,,,,,,2,4,2020-12-11_09h07.42.935,Context_Learning_Pilot,2020.1.3,MacIntel,60,,,,,,,1,media/dnnb.png,2,Symb,l,RT,0,0,35,0,1,5,1.8,4,l,1,1.01825,35,0,35,0,1,,,,,
,,,,,,,,,,,,,,,2,4,2020-12-11_09h07.42.935,Context_Learning_Pilot,2020.1.3,MacIntel,60,,,,,,,0,media/djnb.png,1,Symb,u,RT,0,0,36,0,1,5,1.8,4,u,1,0.909275,36,0,36,0,1,,,,,
,,,,,,,,,,,,,,,2,4,2020-12-11_09h07.42.935,Context_Learning_Pilot,2020.1.3,MacIntel,60,,,,,,,2,media/dinb.png,1,Symb,h,RT,0,0,37,0,1,5,1.8,4,h,1,0.72022,37,0,37,0,1,,,,,
,,,,,,,,,,,,,,,2,4,2020-12-11_09h07.42.935,Context_Learning_Pilot,2020.1.3,MacIntel,60,,,,,,,0,media/djnb.png,2,Symb,h,RT,0,0,38,0,1,5,1.8,4,h,1,1.184695,38,0,38,0,1,,,,,
,,,,,,,,,,,,,,,2,4,2020-12-11_09h07.42.935,Context_Learning_Pilot,2020.1.3,MacIntel,60,,,,,,,0,media/djnb.png,1,Symb,u,RT,0,0,39,0,1,5,1.8,4,u,1,3.79961,39,0,39,0,1,,,,,
,,,,,,,,,,,,,,,2,4,2020-12-11_09h07.42.935,Context_Learning_Pilot,2020.1.3,MacIntel,60,,,,,,,3,media/ddnb.png,2,Symb,i,RT,0,0,40,0,1,5,1.8,4,i,1,1.392535,40,0,40,0,1,,,,,
,,,,,,,,,,,,,,,2,4,2020-12-11_09h07.42.935,Context_Learning_Pilot,2020.1.3,MacIntel,60,,,,,,,3,media/ddnb.png,2,Symb,i,RT,0,0,41,0,1,5,1.8,4,i,1,0.618995,41,0,41,0,1,,,,,
,,,,,,,,,,,,,,,2,4,2020-12-11_09h07.42.935,Context_Learning_Pilot,2020.1.3,MacIntel,60,,,,,,,3,media/ddnb.png,1,Symb,l,RT,0,0,42,0,1,5,1.8,4,l,1,1.024265,42,0,42,0,1,,,,,
,,,,,,,,,,,,,,,2,4,2020-12-11_09h07.42.935,Context_Learning_Pilot,2020.1.3,MacIntel,60,,,,,,,1,media/dnnb.png,1,Symb,i,RT,0,0,43,0,1,5,1.8,4,i,1,3.49558,43,0,43,0,1,,,,,
,,,,,,,,,,,,,,,2,4,2020-12-11_09h07.42.935,Context_Learning_Pilot,2020.1.3,MacIntel,60,,,,,,,0,media/djnb.png,2,Symb,h,RT,0,0,44,0,1,5,1.8,4,h,1,0.81522,44,0,44,0,1,,,,,
,,,,,,,,,,,,,,,2,4,2020-12-11_09h07.42.935,Context_Learning_Pilot,2020.1.3,MacIntel,60,,,,,,,1,media/dnnb.png,1,Symb,i,RT,0,0,45,0,1,5,1.8,4,i,1,2.302285,45,0,45,0,1,,,,,
,,,,,,,,,,,,,,,2,4,2020-12-11_09h07.42.935,Context_Learning_Pilot,2020.1.3,MacIntel,60,,,,,,,3,media/ddnb.png,1,Symb,l,RT,0,0,46,0,1,5,1.8,4,l,1,0.920795,46,0,46,0,1,,,,,
,,,,,,,,,,,,,,,2,4,2020-12-11_09h07.42.935,Context_Learning_Pilot,2020.1.3,MacIntel,60,,,,,,,2,media/dinb.png,2,Symb,u,RT,0,0,47,0,1,5,1.8,4,u,1,0.94444,47,0,47,0,1,,,,,
,,,,,,,,,,,,,,,2,4,2020-12-11_09h07.42.935,Context_Learning_Pilot,2020.1.3,MacIntel,60,,,,,,,0,media/djnb.png,2,Symb,h,RT,0,0,48,0,1,5,1.8,4,h,1,0.962155,48,0,48,0,1,,,,,
,,,,,,,,,,,,,,,2,4,2020-12-11_09h07.42.935,Context_Learning_Pilot,2020.1.3,MacIntel,60,,,,,,,1,media/dnnb.png,1,Symb,i,RT,0,0,49,0,1,5,1.8,4,i,1,1.55109,49,0,49,0,1,,,,,
,,,,,,,,,,,,,,,2,4,2020-12-11_09h07.42.935,Context_Learning_Pilot,2020.1.3,MacIntel,60,,,,,,,3,media/ddnb.png,2,Symb,i,RT,0,0,50,0,1,5,1.8,4,i,1,1.049535,50,0,50,0,1,,,,,
,,,,,,,,,,,,,,,2,4,2020-12-11_09h07.42.935,Context_Learning_Pilot,2020.1.3,MacIntel,60,,,,,,,0,media/djnb.png,2,Symb,h,RT,0,0,51,0,1,5,1.8,4,u,0,1.397025,51,0,51,0,1,,,,,
,,,,,,,,,,,,,,,2,4,2020-12-11_09h07.42.935,Context_Learning_Pilot,2020.1.3,MacIntel,60,,,,,,,2,media/dinb.png,1,Symb,h,RT,0,0,52,0,1,5,1.8,4,h,1,0.75215,52,0,52,0,1,,,,,
,,,,,,,,,,,,,,,2,4,2020-12-11_09h07.42.935,Context_Learning_Pilot,2020.1.3,MacIntel,60,,,,,,,3,media/ddnb.png,2,Symb,i,RT,0,0,53,0,1,5,1.8,4,i,1,2.13379,53,0,53,0,1,,,,,
,,,,,,,,,,,,,,,2,4,2020-12-11_09h07.42.935,Context_Learning_Pilot,2020.1.3,MacIntel,60,,,,,,,2,media/dinb.png,2,Symb,u,RT,0,0,54,0,1,5,1.8,4,u,1,3.16437,54,0,54,0,1,,,,,
,,,,,,,,,,,,,,,2,4,2020-12-11_09h07.42.935,Context_Learning_Pilot,2020.1.3,MacIntel,60,,,,,,,2,media/dinb.png,1,Symb,h,RT,0,0,55,0,1,5,1.8,4,h,1,0.73615,55,0,55,0,1,,,,,
,,,,,,,,,,,,,,,2,4,2020-12-11_09h07.42.935,Context_Learning_Pilot,2020.1.3,MacIntel,60,,,,,,,1,media/dnnb.png,2,Symb,l,RT,0,0,56,0,1,5,1.8,4,l,1,0.96005,56,0,56,0,1,,,,,
,,,,,,,,,,,,,,,2,4,2020-12-11_09h07.42.935,Context_Learning_Pilot,2020.1.3,MacIntel,60,,,,,,,1,media/dnnb.png,1,Symb,i,RT,0,0,57,0,1,5,1.8,4,i,1,0.65368,57,0,57,0,1,,,,,
,,,,,,,,,,,,,,,2,4,2020-12-11_09h07.42.935,Context_Learning_Pilot,2020.1.3,MacIntel,60,,,,,,,3,media/ddnb.png,1,Symb,l,RT,0,0,58,0,1,5,1.8,4,l,1,2.5983,58,0,58,0,1,,,,,
,,,,,,,,,,,,,,,2,4,2020-12-11_09h07.42.935,Context_Learning_Pilot,2020.1.3,MacIntel,60,,,,,,,0,media/djnb.png,1,Symb,u,RT,0,0,59,0,1,5,1.8,4,u,1,0.78597,59,0,59,0,1,,,,,
,,,,,,,,,,,,,,,2,4,2020-12-11_09h07.42.935,Context_Learning_Pilot,2020.1.3,MacIntel,60,,,,,,,1,media/dnnb.png,2,Symb,l,RT,0,0,60,0,1,5,1.8,4,l,1,0.69957,60,0,60,0,1,,,,,
,,,,,,,,,,,,,,,2,4,2020-12-11_09h07.42.935,Context_Learning_Pilot,2020.1.3,MacIntel,60,,,,,,,0,media/djnb.png,1,Symb,u,RT,0,0,61,0,1,5,1.8,4,u,1,3.620655,61,0,61,0,1,,,,,
,,,,,,,,,,,,,,,2,4,2020-12-11_09h07.42.935,Context_Learning_Pilot,2020.1.3,MacIntel,60,,,,,,,3,media/ddnb.png,1,Symb,l,RT,0,0,62,0,1,5,1.8,4,l,1,0.92938,62,0,62,0,1,,,,,
,,,,,,,,,,,,,,,2,4,2020-12-11_09h07.42.935,Context_Learning_Pilot,2020.1.3,MacIntel,60,,,,,,,2,media/dinb.png,2,Symb,u,RT,0,0,63,0,1,5,1.8,4,u,1,0.69255,63,0,63,0,1,,,,,
,,,,,,,,,,,,,,,2,4,2020-12-11_09h07.42.935,Context_Learning_Pilot,2020.1.3,MacIntel,60,,,,,,,2,media/dinb.png,1,Symb,h,RT,0,0,64,0,1,5,1.8,4,h,1,1.971175,64,0,64,0,1,,,,,
,,,,,,,,,,,,,,,2,4,2020-12-11_09h07.42.935,Context_Learning_Pilot,2020.1.3,MacIntel,60,,,,,,,1,media/dnnb.png,1,Symb,i,RT,0,0,65,0,1,5,1.8,4,i,1,0.718175,65,0,65,0,1,,,,,
,,,,,,,,,,,,,,,2,4,2020-12-11_09h07.42.935,Context_Learning_Pilot,2020.1.3,MacIntel,60,,,,,,,3,media/ddnb.png,1,Symb,l,RT,0,0,66,0,1,5,1.8,4,l,1,0.95588,66,0,66,0,1,,,,,
,,,,,,,,,,,,,,,2,4,2020-12-11_09h07.42.935,Context_Learning_Pilot,2020.1.3,MacIntel,60,,,,,,,2,media/dinb.png,2,Symb,u,RT,0,0,67,0,1,5,1.8,4,u,1,0.748445,67,0,67,0,1,,,,,
,,,,,,,,,,,,,,,2,4,2020-12-11_09h07.42.935,Context_Learning_Pilot,2020.1.3,MacIntel,60,,,,,,,0,media/djnb.png,1,Symb,u,RT,0,0,68,0,1,5,1.8,4,u,1,1.131275,68,0,68,0,1,,,,,
,,,,,,,,,,,,,,,2,4,2020-12-11_09h07.42.935,Context_Learning_Pilot,2020.1.3,MacIntel,60,,,,,,,1,media/dnnb.png,2,Symb,l,RT,0,0,69,0,1,5,1.8,4,l,1,0.608025,69,0,69,0,1,,,,,
,,,,,,,,,,,,,,,2,4,2020-12-11_09h07.42.935,Context_Learning_Pilot,2020.1.3,MacIntel,60,,,,,,,0,media/djnb.png,2,Symb,h,RT,0,0,70,0,1,5,1.8,4,h,1,0.87711,70,0,70,0,1,,,,,
,,,,,,,,,,,,,,,2,4,2020-12-11_09h07.42.935,Context_Learning_Pilot,2020.1.3,MacIntel,60,,,,,,,3,media/ddnb.png,1,Symb,l,RT,0,0,71,0,1,5,1.8,4,l,1,1.31134,71,0,71,0,1,,,,,
,,,,,,,,,,,,,,,2,4,2020-12-11_09h07.42.935,Context_Learning_Pilot,2020.1.3,MacIntel,60,,,,,,,3,media/ddnb.png,2,Symb,i,RT,0,0,72,0,1,5,1.8,4,i,1,1.10392,72,0,72,0,1,,,,,
,,,,,,,,,,,,,,,2,4,2020-12-11_09h07.42.935,Context_Learning_Pilot,2020.1.3,MacIntel,60,,,,,,,0,media/djnb.png,1,Symb,u,RT,0,0,73,0,1,5,1.8,4,u,1,0.88634,73,0,73,0,1,,,,,
,,,,,,,,,,,,,,,2,4,2020-12-11_09h07.42.935,Context_Learning_Pilot,2020.1.3,MacIntel,60,,,,,,,3,media/ddnb.png,2,Symb,i,RT,0,0,74,0,1,5,1.8,4,i,1,1.192155,74,0,74,0,1,,,,,
,,,,,,,,,,,,,,,2,4,2020-12-11_09h07.42.935,Context_Learning_Pilot,2020.1.3,MacIntel,60,,,,,,,2,media/dinb.png,1,Symb,h,RT,0,0,75,0,1,5,1.8,4,h,1,0.652345,75,0,75,0,1,,,,,
,,,,,,,,,,,,,,,2,4,2020-12-11_09h07.42.935,Context_Learning_Pilot,2020.1.3,MacIntel,60,,,,,,,2,media/dinb.png,2,Symb,u,RT,0,0,76,0,1,5,1.8,4,u,1,1.014835,76,0,76,0,1,,,,,
,,,,,,,,,,,,,,,2,4,2020-12-11_09h07.42.935,Context_Learning_Pilot,2020.1.3,MacIntel,60,,,,,,,0,media/djnb.png,2,Symb,h,RT,0,0,77,0,1,5,1.8,4,h,1,0.811015,77,0,77,0,1,,,,,
,,,,,,,,,,,,,,,2,4,2020-12-11_09h07.42.935,Context_Learning_Pilot,2020.1.3,MacIntel,60,,,,,,,1,media/dnnb.png,1,Symb,i,RT,0,0,78,0,1,5,1.8,4,i,1,0.833205,78,0,78,0,1,,,,,
,,,,,,,,,,,,,,,2,4,2020-12-11_09h07.42.935,Context_Learning_Pilot,2020.1.3,MacIntel,60,,,,,,,1,media/dnnb.png,2,Symb,l,RT,0,0,79,0,1,5,1.8,4,l,1,0.77458,79,0,79,0,1,,,,,
,,,,,,,,,,,,,,,2,4,2020-12-11_09h07.42.935,Context_Learning_Pilot,2020.1.3,MacIntel,60,,,,,,,2,media/dinb.png,1,Symb,h,RT,0,0,80,0,1,5,1.8,4,u,0,1.20199,80,0,80,0,1,,,,,
,,,,,,,,,,,,,,,2,4,2020-12-11_09h07.42.935,Context_Learning_Pilot,2020.1.3,MacIntel,60,,,,,,,1,media/dnnb.png,1,Symb,i,RT,0,0,81,0,1,5,1.8,4,i,1,0.716855,81,0,81,0,1,,,,,
,,,,,,,,,,,,,,,2,4,2020-12-11_09h07.42.935,Context_Learning_Pilot,2020.1.3,MacIntel,60,,,,,,,0,media/djnb.png,2,Symb,h,RT,0,0,82,0,1,5,1.8,4,h,1,0.72375,82,0,82,0,1,,,,,
,,,,,,,,,,,,,,,2,4,2020-12-11_09h07.42.935,Context_Learning_Pilot,2020.1.3,MacIntel,60,,,,,,,2,media/dinb.png,2,Symb,u,RT,0,0,83,0,1,5,1.8,4,u,1,0.755465,83,0,83,0,1,,,,,
,,,,,,,,,,,,,,,2,4,2020-12-11_09h07.42.935,Context_Learning_Pilot,2020.1.3,MacIntel,60,,,,,,,1,media/dnnb.png,1,Symb,i,RT,0,0,84,0,1,5,1.8,4,i,1,0.74105,84,0,84,0,1,,,,,
,,,,,,,,,,,,,,,2,4,2020-12-11_09h07.42.935,Context_Learning_Pilot,2020.1.3,MacIntel,60,,,,,,,0,media/djnb.png,1,Symb,u,RT,0,0,85,0,1,5,1.8,4,u,1,0.825235,85,0,85,0,1,,,,,
,,,,,,,,,,,,,,,2,4,2020-12-11_09h07.42.935,Context_Learning_Pilot,2020.1.3,MacIntel,60,,,,,,,3,media/ddnb.png,1,Symb,l,RT,0,0,86,0,1,5,1.8,4,i,0,0.96939,86,0,86,0,1,,,,,
,,,,,,,,,,,,,,,2,4,2020-12-11_09h07.42.935,Context_Learning_Pilot,2020.1.3,MacIntel,60,,,,,,,3,media/ddnb.png,2,Symb,i,RT,0,0,87,0,1,5,1.8,4,l,0,1.10507,87,0,87,0,1,,,,,
,,,,,,,,,,,,,,,2,4,2020-12-11_09h07.42.935,Context_Learning_Pilot,2020.1.3,MacIntel,60,,,,,,,0,media/djnb.png,2,Symb,h,RT,0,0,88,0,1,5,1.8,4,h,1,0.628975,88,0,88,0,1,,,,,
,,,,,,,,,,,,,,,2,4,2020-12-11_09h07.42.935,Context_Learning_Pilot,2020.1.3,MacIntel,60,,,,,,,3,media/ddnb.png,2,Symb,i,RT,0,0,89,0,1,5,1.8,4,i,1,1.86396,89,0,89,0,1,,,,,
,,,,,,,,,,,,,,,2,4,2020-12-11_09h07.42.935,Context_Learning_Pilot,2020.1.3,MacIntel,60,,,,,,,2,media/dinb.png,1,Symb,h,RT,0,0,90,0,1,5,1.8,4,h,1,0.80656,90,0,90,0,1,,,,,
,,,,,,,,,,,,,,,2,4,2020-12-11_09h07.42.935,Context_Learning_Pilot,2020.1.3,MacIntel,60,,,,,,,1,media/dnnb.png,2,Symb,l,RT,0,0,91,0,1,5,1.8,4,l,1,0.679845,91,0,91,0,1,,,,,
,,,,,,,,,,,,,,,2,4,2020-12-11_09h07.42.935,Context_Learning_Pilot,2020.1.3,MacIntel,60,,,,,,,3,media/ddnb.png,1,Symb,l,RT,0,0,92,0,1,5,1.8,4,l,1,1.05505,92,0,92,0,1,,,,,
,,,,,,,,,,,,,,,2,4,2020-12-11_09h07.42.935,Context_Learning_Pilot,2020.1.3,MacIntel,60,,,,,,,1,media/dnnb.png,2,Symb,l,RT,0,0,93,0,1,5,1.8,4,i,0,0.77135,93,0,93,0,1,,,,,
,,,,,,,,,,,,,,,2,4,2020-12-11_09h07.42.935,Context_Learning_Pilot,2020.1.3,MacIntel,60,,,,,,,0,media/djnb.png,1,Symb,u,RT,0,0,94,0,1,5,1.8,4,u,1,0.85322,94,0,94,0,1,,,,,
,,,,,,,,,,,,,,,2,4,2020-12-11_09h07.42.935,Context_Learning_Pilot,2020.1.3,MacIntel,60,,,,,,,2,media/dinb.png,2,Symb,u,RT,0,0,95,0,1,5,1.8,4,u,1,0.747225,95,0,95,0,1,,,,,
,,,,,,,,,,,,,,,2,4,2020-12-11_09h07.42.935,Context_Learning_Pilot,2020.1.3,MacIntel,60,,,,,,,,,,,,,,,,,,,,,,,,,,,,,4,0,4,0,1
,,,,,,,,,,,,,,,2,4,2020-12-11_09h07.42.935,Context_Learning_Pilot,2020.1.3,MacIntel,60,,,,,u,1.859555,0,media/djnb.png,1,Symb,u,RT,0,0,0,0,1,6,1.8,4,u,1,0.978865,0,0,0,0,1,,,,,
,,,,,,,,,,,,,,,2,4,2020-12-11_09h07.42.935,Context_Learning_Pilot,2020.1.3,MacIntel,60,,,,,,,1,media/dnnb.png,2,Symb,l,RT,0,0,1,0,1,6,1.8,4,l,1,0.65121,1,0,1,0,1,,,,,
,,,,,,,,,,,,,,,2,4,2020-12-11_09h07.42.935,Context_Learning_Pilot,2020.1.3,MacIntel,60,,,,,,,1,media/dnnb.png,1,Symb,i,RT,0,0,2,0,1,6,1.8,4,i,1,0.933755,2,0,2,0,1,,,,,
,,,,,,,,,,,,,,,2,4,2020-12-11_09h07.42.935,Context_Learning_Pilot,2020.1.3,MacIntel,60,,,,,,,2,media/dinb.png,1,Symb,h,RT,0,0,3,0,1,6,1.8,4,h,1,0.695445,3,0,3,0,1,,,,,
,,,,,,,,,,,,,,,2,4,2020-12-11_09h07.42.935,Context_Learning_Pilot,2020.1.3,MacIntel,60,,,,,,,3,media/ddnb.png,2,Symb,i,RT,0,0,4,0,1,6,1.8,4,i,1,1.068495,4,0,4,0,1,,,,,
,,,,,,,,,,,,,,,2,4,2020-12-11_09h07.42.935,Context_Learning_Pilot,2020.1.3,MacIntel,60,,,,,,,1,media/dnnb.png,1,Symb,i,RT,0,0,5,0,1,6,1.8,4,i,1,2.73435,5,0,5,0,1,,,,,
,,,,,,,,,,,,,,,2,4,2020-12-11_09h07.42.935,Context_Learning_Pilot,2020.1.3,MacIntel,60,,,,,,,3,media/ddnb.png,1,Symb,l,RT,0,0,6,0,1,6,1.8,4,i,0,0.65175,6,0,6,0,1,,,,,
,,,,,,,,,,,,,,,2,4,2020-12-11_09h07.42.935,Context_Learning_Pilot,2020.1.3,MacIntel,60,,,,,,,0,media/djnb.png,1,Symb,u,RT,0,0,7,0,1,6,1.8,4,u,1,1.15624,7,0,7,0,1,,,,,
,,,,,,,,,,,,,,,2,4,2020-12-11_09h07.42.935,Context_Learning_Pilot,2020.1.3,MacIntel,60,,,,,,,2,media/dinb.png,2,Symb,u,RT,0,0,8,0,1,6,1.8,4,u,1,1.06518,8,0,8,0,1,,,,,
,,,,,,,,,,,,,,,2,4,2020-12-11_09h07.42.935,Context_Learning_Pilot,2020.1.3,MacIntel,60,,,,,,,1,media/dnnb.png,2,Symb,l,RT,0,0,9,0,1,6,1.8,4,l,1,0.67059,9,0,9,0,1,,,,,
,,,,,,,,,,,,,,,2,4,2020-12-11_09h07.42.935,Context_Learning_Pilot,2020.1.3,MacIntel,60,,,,,,,0,media/djnb.png,2,Symb,h,RT,0,0,10,0,1,6,1.8,4,h,1,1.417515,10,0,10,0,1,,,,,
,,,,,,,,,,,,,,,2,4,2020-12-11_09h07.42.935,Context_Learning_Pilot,2020.1.3,MacIntel,60,,,,,,,0,media/djnb.png,2,Symb,h,RT,0,0,11,0,1,6,1.8,4,h,1,0.484895,11,0,11,0,1,,,,,
,,,,,,,,,,,,,,,2,4,2020-12-11_09h07.42.935,Context_Learning_Pilot,2020.1.3,MacIntel,60,,,,,,,2,media/dinb.png,2,Symb,u,RT,0,0,12,0,1,6,1.8,4,u,1,1.16247,12,0,12,0,1,,,,,
,,,,,,,,,,,,,,,2,4,2020-12-11_09h07.42.935,Context_Learning_Pilot,2020.1.3,MacIntel,60,,,,,,,3,media/ddnb.png,1,Symb,l,RT,0,0,13,0,1,6,1.8,4,l,1,1.777405,13,0,13,0,1,,,,,
,,,,,,,,,,,,,,,2,4,2020-12-11_09h07.42.935,Context_Learning_Pilot,2020.1.3,MacIntel,60,,,,,,,3,media/ddnb.png,2,Symb,i,RT,0,0,14,0,1,6,1.8,4,i,1,0.654525,14,0,14,0,1,,,,,
,,,,,,,,,,,,,,,2,4,2020-12-11_09h07.42.935,Context_Learning_Pilot,2020.1.3,MacIntel,60,,,,,,,2,media/dinb.png,1,Symb,h,RT,0,0,15,0,1,6,1.8,4,h,1,0.88956,15,0,15,0,1,,,,,
,,,,,,,,,,,,,,,2,4,2020-12-11_09h07.42.935,Context_Learning_Pilot,2020.1.3,MacIntel,60,,,,,,,1,media/dnnb.png,1,Symb,i,RT,0,0,16,0,1,6,1.8,4,i,1,1.32023,16,0,16,0,1,,,,,
,,,,,,,,,,,,,,,2,4,2020-12-11_09h07.42.935,Context_Learning_Pilot,2020.1.3,MacIntel,60,,,,,,,3,media/ddnb.png,2,Symb,i,RT,0,0,17,0,1,6,1.8,4,i,1,3.60821,17,0,17,0,1,,,,,
,,,,,,,,,,,,,,,2,4,2020-12-11_09h07.42.935,Context_Learning_Pilot,2020.1.3,MacIntel,60,,,,,,,2,media/dinb.png,2,Symb,u,RT,0,0,18,0,1,6,1.8,4,u,1,0.782075,18,0,18,0,1,,,,,
,,,,,,,,,,,,,,,2,4,2020-12-11_09h07.42.935,Context_Learning_Pilot,2020.1.3,MacIntel,60,,,,,,,0,media/djnb.png,1,Symb,u,RT,0,0,19,0,1,6,1.8,4,h,0,0.940445,19,0,19,0,1,,,,,
,,,,,,,,,,,,,,,2,4,2020-12-11_09h07.42.935,Context_Learning_Pilot,2020.1.3,MacIntel,60,,,,,,,0,media/djnb.png,1,Symb,u,RT,0,0,20,0,1,6,1.8,4,u,1,0.69455,20,0,20,0,1,,,,,
,,,,,,,,,,,,,,,2,4,2020-12-11_09h07.42.935,Context_Learning_Pilot,2020.1.3,MacIntel,60,,,,,,,2,media/dinb.png,2,Symb,u,RT,0,0,21,0,1,6,1.8,4,u,1,2.2779,21,0,21,0,1,,,,,
,,,,,,,,,,,,,,,2,4,2020-12-11_09h07.42.935,Context_Learning_Pilot,2020.1.3,MacIntel,60,,,,,,,2,media/dinb.png,1,Symb,h,RT,0,0,22,0,1,6,1.8,4,h,1,0.709375,22,0,22,0,1,,,,,
,,,,,,,,,,,,,,,2,4,2020-12-11_09h07.42.935,Context_Learning_Pilot,2020.1.3,MacIntel,60,,,,,,,0,media/djnb.png,2,Symb,h,RT,0,0,23,0,1,6,1.8,4,h,1,2.798155,23,0,23,0,1,,,,,
,,,,,,,,,,,,,,,2,4,2020-12-11_09h07.42.935,Context_Learning_Pilot,2020.1.3,MacIntel,60,,,,,,,2,media/dinb.png,1,Symb,h,RT,0,0,24,0,1,6,1.8,4,h,1,0.789195,24,0,24,0,1,,,,,
,,,,,,,,,,,,,,,2,4,2020-12-11_09h07.42.935,Context_Learning_Pilot,2020.1.3,MacIntel,60,,,,,,,3,media/ddnb.png,2,Symb,i,RT,0,0,25,0,1,6,1.8,4,i,1,0.891755,25,0,25,0,1,,,,,
,,,,,,,,,,,,,,,2,4,2020-12-11_09h07.42.935,Context_Learning_Pilot,2020.1.3,MacIntel,60,,,,,,,3,media/ddnb.png,1,Symb,l,RT,0,0,26,0,1,6,1.8,4,l,1,1.414905,26,0,26,0,1,,,,,
,,,,,,,,,,,,,,,2,4,2020-12-11_09h07.42.935,Context_Learning_Pilot,2020.1.3,MacIntel,60,,,,,,,3,media/ddnb.png,1,Symb,l,RT,0,0,27,0,1,6,1.8,4,l,1,0.54908,27,0,27,0,1,,,,,
,,,,,,,,,,,,,,,2,4,2020-12-11_09h07.42.935,Context_Learning_Pilot,2020.1.3,MacIntel,60,,,,,,,1,media/dnnb.png,1,Symb,i,RT,0,0,28,0,1,6,1.8,4,i,1,1.411735,28,0,28,0,1,,,,,
,,,,,,,,,,,,,,,2,4,2020-12-11_09h07.42.935,Context_Learning_Pilot,2020.1.3,MacIntel,60,,,,,,,1,media/dnnb.png,2,Symb,l,RT,0,0,29,0,1,6,1.8,4,l,1,1.845485,29,0,29,0,1,,,,,
,,,,,,,,,,,,,,,2,4,2020-12-11_09h07.42.935,Context_Learning_Pilot,2020.1.3,MacIntel,60,,,,,,,1,media/dnnb.png,2,Symb,l,RT,0,0,30,0,1,6,1.8,4,l,1,0.561625,30,0,30,0,1,,,,,
,,,,,,,,,,,,,,,2,4,2020-12-11_09h07.42.935,Context_Learning_Pilot,2020.1.3,MacIntel,60,,,,,,,0,media/djnb.png,2,Symb,h,RT,0,0,31,0,1,6,1.8,4,h,1,0.766715,31,0,31,0,1,,,,,
,,,,,,,,,,,,,,,2,4,2020-12-11_09h07.42.935,Context_Learning_Pilot,2020.1.3,MacIntel,60,,,,,,,3,media/ddnb.png,2,Symb,i,RT,0,0,32,0,1,6,1.8,4,i,1,0.780335,32,0,32,0,1,,,,,
,,,,,,,,,,,,,,,2,4,2020-12-11_09h07.42.935,Context_Learning_Pilot,2020.1.3,MacIntel,60,,,,,,,1,media/dnnb.png,2,Symb,l,RT,0,0,33,0,1,6,1.8,4,l,1,0.712995,33,0,33,0,1,,,,,
,,,,,,,,,,,,,,,2,4,2020-12-11_09h07.42.935,Context_Learning_Pilot,2020.1.3,MacIntel,60,,,,,,,0,media/djnb.png,1,Symb,u,RT,0,0,34,0,1,6,1.8,4,u,1,0.90399,34,0,34,0,1,,,,,
,,,,,,,,,,,,,,,2,4,2020-12-11_09h07.42.935,Context_Learning_Pilot,2020.1.3,MacIntel,60,,,,,,,3,media/ddnb.png,1,Symb,l,RT,0,0,35,0,1,6,1.8,4,i,0,0.965865,35,0,35,0,1,,,,,
,,,,,,,,,,,,,,,2,4,2020-12-11_09h07.42.935,Context_Learning_Pilot,2020.1.3,MacIntel,60,,,,,,,1,media/dnnb.png,1,Symb,i,RT,0,0,36,0,1,6,1.8,4,i,1,0.803915,36,0,36,0,1,,,,,
,,,,,,,,,,,,,,,2,4,2020-12-11_09h07.42.935,Context_Learning_Pilot,2020.1.3,MacIntel,60,,,,,,,3,media/ddnb.png,2,Symb,i,RT,0,0,37,0,1,6,1.8,4,l,0,0.53556,37,0,37,0,1,,,,,
,,,,,,,,,,,,,,,2,4,2020-12-11_09h07.42.935,Context_Learning_Pilot,2020.1.3,MacIntel,60,,,,,,,1,media/dnnb.png,2,Symb,l,RT,0,0,38,0,1,6,1.8,4,l,1,0.68852,38,0,38,0,1,,,,,
,,,,,,,,,,,,,,,2,4,2020-12-11_09h07.42.935,Context_Learning_Pilot,2020.1.3,MacIntel,60,,,,,,,0,media/djnb.png,2,Symb,h,RT,0,0,39,0,1,6,1.8,4,u,0,0.76604,39,0,39,0,1,,,,,
,,,,,,,,,,,,,,,2,4,2020-12-11_09h07.42.935,Context_Learning_Pilot,2020.1.3,MacIntel,60,,,,,,,2,media/dinb.png,2,Symb,u,RT,0,0,40,0,1,6,1.8,4,u,1,0.943565,40,0,40,0,1,,,,,
,,,,,,,,,,,,,,,2,4,2020-12-11_09h07.42.935,Context_Learning_Pilot,2020.1.3,MacIntel,60,,,,,,,1,media/dnnb.png,1,Symb,i,RT,0,0,41,0,1,6,1.8,4,i,1,0.89096,41,0,41,0,1,,,,,
,,,,,,,,,,,,,,,2,4,2020-12-11_09h07.42.935,Context_Learning_Pilot,2020.1.3,MacIntel,60,,,,,,,2,media/dinb.png,1,Symb,h,RT,0,0,42,0,1,6,1.8,4,h,1,0.696415,42,0,42,0,1,,,,,
,,,,,,,,,,,,,,,2,4,2020-12-11_09h07.42.935,Context_Learning_Pilot,2020.1.3,MacIntel,60,,,,,,,0,media/djnb.png,2,Symb,h,RT,0,0,43,0,1,6,1.8,4,h,1,0.560855,43,0,43,0,1,,,,,
,,,,,,,,,,,,,,,2,4,2020-12-11_09h07.42.935,Context_Learning_Pilot,2020.1.3,MacIntel,60,,,,,,,0,media/djnb.png,1,Symb,u,RT,0,0,44,0,1,6,1.8,4,u,1,0.91789,44,0,44,0,1,,,,,
,,,,,,,,,,,,,,,2,4,2020-12-11_09h07.42.935,Context_Learning_Pilot,2020.1.3,MacIntel,60,,,,,,,2,media/dinb.png,2,Symb,u,RT,0,0,45,0,1,6,1.8,4,u,1,0.971925,45,0,45,0,1,,,,,
,,,,,,,,,,,,,,,2,4,2020-12-11_09h07.42.935,Context_Learning_Pilot,2020.1.3,MacIntel,60,,,,,,,2,media/dinb.png,1,Symb,h,RT,0,0,46,0,1,6,1.8,4,h,1,1.050035,46,0,46,0,1,,,,,
,,,,,,,,,,,,,,,2,4,2020-12-11_09h07.42.935,Context_Learning_Pilot,2020.1.3,MacIntel,60,,,,,,,3,media/ddnb.png,1,Symb,l,RT,0,0,47,0,1,6,1.8,4,l,1,0.818795,47,0,47,0,1,,,,,
,,,,,,,,,,,,,,,2,4,2020-12-11_09h07.42.935,Context_Learning_Pilot,2020.1.3,MacIntel,60,,,,,,,0,media/djnb.png,2,Symb,h,RT,0,0,48,0,1,6,1.8,4,h,1,0.661595,48,0,48,0,1,,,,,
,,,,,,,,,,,,,,,2,4,2020-12-11_09h07.42.935,Context_Learning_Pilot,2020.1.3,MacIntel,60,,,,,,,0,media/djnb.png,1,Symb,u,RT,0,0,49,0,1,6,1.8,4,u,1,1.527195,49,0,49,0,1,,,,,
,,,,,,,,,,,,,,,2,4,2020-12-11_09h07.42.935,Context_Learning_Pilot,2020.1.3,MacIntel,60,,,,,,,0,media/djnb.png,1,Symb,u,RT,0,0,50,0,1,6,1.8,4,u,1,0.6418,50,0,50,0,1,,,,,
,,,,,,,,,,,,,,,2,4,2020-12-11_09h07.42.935,Context_Learning_Pilot,2020.1.3,MacIntel,60,,,,,,,1,media/dnnb.png,1,Symb,i,RT,0,0,51,0,1,6,1.8,4,i,1,0.825055,51,0,51,0,1,,,,,
,,,,,,,,,,,,,,,2,4,2020-12-11_09h07.42.935,Context_Learning_Pilot,2020.1.3,MacIntel,60,,,,,,,1,media/dnnb.png,2,Symb,l,RT,0,0,52,0,1,6,1.8,4,l,1,0.62754,52,0,52,0,1,,,,,
,,,,,,,,,,,,,,,2,4,2020-12-11_09h07.42.935,Context_Learning_Pilot,2020.1.3,MacIntel,60,,,,,,,2,media/dinb.png,1,Symb,h,RT,0,0,53,0,1,6,1.8,4,h,1,0.57389,53,0,53,0,1,,,,,
,,,,,,,,,,,,,,,2,4,2020-12-11_09h07.42.935,Context_Learning_Pilot,2020.1.3,MacIntel,60,,,,,,,1,media/dnnb.png,2,Symb,l,RT,0,0,54,0,1,6,1.8,4,l,1,1.19989,54,0,54,0,1,,,,,
,,,,,,,,,,,,,,,2,4,2020-12-11_09h07.42.935,Context_Learning_Pilot,2020.1.3,MacIntel,60,,,,,,,3,media/ddnb.png,2,Symb,i,RT,0,0,55,0,1,6,1.8,4,i,1,0.66158,55,0,55,0,1,,,,,
,,,,,,,,,,,,,,,2,4,2020-12-11_09h07.42.935,Context_Learning_Pilot,2020.1.3,MacIntel,60,,,,,,,2,media/dinb.png,2,Symb,u,RT,0,0,56,0,1,6,1.8,4,u,1,0.962665,56,0,56,0,1,,,,,
,,,,,,,,,,,,,,,2,4,2020-12-11_09h07.42.935,Context_Learning_Pilot,2020.1.3,MacIntel,60,,,,,,,2,media/dinb.png,1,Symb,h,RT,0,0,57,0,1,6,1.8,4,h,1,0.76566,57,0,57,0,1,,,,,
,,,,,,,,,,,,,,,2,4,2020-12-11_09h07.42.935,Context_Learning_Pilot,2020.1.3,MacIntel,60,,,,,,,1,media/dnnb.png,1,Symb,i,RT,0,0,58,0,1,6,1.8,4,i,1,0.7053,58,0,58,0,1,,,,,
,,,,,,,,,,,,,,,2,4,2020-12-11_09h07.42.935,Context_Learning_Pilot,2020.1.3,MacIntel,60,,,,,,,3,media/ddnb.png,1,Symb,l,RT,0,0,59,0,1,6,1.8,4,l,1,0.57115,59,0,59,0,1,,,,,
,,,,,,,,,,,,,,,2,4,2020-12-11_09h07.42.935,Context_Learning_Pilot,2020.1.3,MacIntel,60,,,,,,,0,media/djnb.png,2,Symb,h,RT,0,0,60,0,1,6,1.8,4,h,1,0.622545,60,0,60,0,1,,,,,
,,,,,,,,,,,,,,,2,4,2020-12-11_09h07.42.935,Context_Learning_Pilot,2020.1.3,MacIntel,60,,,,,,,2,media/dinb.png,2,Symb,u,RT,0,0,61,0,1,6,1.8,4,u,1,1.2415,61,0,61,0,1,,,,,
,,,,,,,,,,,,,,,2,4,2020-12-11_09h07.42.935,Context_Learning_Pilot,2020.1.3,MacIntel,60,,,,,,,3,media/ddnb.png,1,Symb,l,RT,0,0,62,0,1,6,1.8,4,l,1,0.85329,62,0,62,0,1,,,,,
,,,,,,,,,,,,,,,2,4,2020-12-11_09h07.42.935,Context_Learning_Pilot,2020.1.3,MacIntel,60,,,,,,,3,media/ddnb.png,2,Symb,i,RT,0,0,63,0,1,6,1.8,4,i,1,0.66043,63,0,63,0,1,,,,,
,,,,,,,,,,,,,,,2,4,2020-12-11_09h07.42.935,Context_Learning_Pilot,2020.1.3,MacIntel,60,,,,,,,0,media/djnb.png,1,Symb,u,RT,0,0,64,0,1,6,1.8,4,u,1,0.889495,64,0,64,0,1,,,,,
,,,,,,,,,,,,,,,2,4,2020-12-11_09h07.42.935,Context_Learning_Pilot,2020.1.3,MacIntel,60,,,,,,,0,media/djnb.png,1,Symb,u,RT,0,0,65,0,1,6,1.8,4,u,1,1.42961,65,0,65,0,1,,,,,
,,,,,,,,,,,,,,,2,4,2020-12-11_09h07.42.935,Context_Learning_Pilot,2020.1.3,MacIntel,60,,,,,,,1,media/dnnb.png,1,Symb,i,RT,0,0,66,0,1,6,1.8,4,i,1,0.73832,66,0,66,0,1,,,,,
,,,,,,,,,,,,,,,2,4,2020-12-11_09h07.42.935,Context_Learning_Pilot,2020.1.3,MacIntel,60,,,,,,,2,media/dinb.png,1,Symb,h,RT,0,0,67,0,1,6,1.8,4,h,1,0.91487,67,0,67,0,1,,,,,
,,,,,,,,,,,,,,,2,4,2020-12-11_09h07.42.935,Context_Learning_Pilot,2020.1.3,MacIntel,60,,,,,,,1,media/dnnb.png,2,Symb,l,RT,0,0,68,0,1,6,1.8,4,l,1,0.829245,68,0,68,0,1,,,,,
,,,,,,,,,,,,,,,2,4,2020-12-11_09h07.42.935,Context_Learning_Pilot,2020.1.3,MacIntel,60,,,,,,,2,media/dinb.png,2,Symb,u,RT,0,0,69,0,1,6,1.8,4,u,1,3.56837,69,0,69,0,1,,,,,
,,,,,,,,,,,,,,,2,4,2020-12-11_09h07.42.935,Context_Learning_Pilot,2020.1.3,MacIntel,60,,,,,,,2,media/dinb.png,1,Symb,h,RT,0,0,70,0,1,6,1.8,4,h,1,0.65534,70,0,70,0,1,,,,,
,,,,,,,,,,,,,,,2,4,2020-12-11_09h07.42.935,Context_Learning_Pilot,2020.1.3,MacIntel,60,,,,,,,2,media/dinb.png,2,Symb,u,RT,0,0,71,0,1,6,1.8,4,u,1,1.18352,71,0,71,0,1,,,,,
,,,,,,,,,,,,,,,2,4,2020-12-11_09h07.42.935,Context_Learning_Pilot,2020.1.3,MacIntel,60,,,,,,,1,media/dnnb.png,2,Symb,l,RT,0,0,72,0,1,6,1.8,4,l,1,0.6638,72,0,72,0,1,,,,,
,,,,,,,,,,,,,,,2,4,2020-12-11_09h07.42.935,Context_Learning_Pilot,2020.1.3,MacIntel,60,,,,,,,3,media/ddnb.png,2,Symb,i,RT,0,0,73,0,1,6,1.8,4,i,1,0.839765,73,0,73,0,1,,,,,
,,,,,,,,,,,,,,,2,4,2020-12-11_09h07.42.935,Context_Learning_Pilot,2020.1.3,MacIntel,60,,,,,,,3,media/ddnb.png,1,Symb,l,RT,0,0,74,0,1,6,1.8,4,i,0,1.011005,74,0,74,0,1,,,,,
,,,,,,,,,,,,,,,2,4,2020-12-11_09h07.42.935,Context_Learning_Pilot,2020.1.3,MacIntel,60,,,,,,,3,media/ddnb.png,1,Symb,l,RT,0,0,75,0,1,6,1.8,4,l,1,0.79246,75,0,75,0,1,,,,,
,,,,,,,,,,,,,,,2,4,2020-12-11_09h07.42.935,Context_Learning_Pilot,2020.1.3,MacIntel,60,,,,,,,0,media/djnb.png,2,Symb,h,RT,0,0,76,0,1,6,1.8,4,h,1,1.41601,76,0,76,0,1,,,,,
,,,,,,,,,,,,,,,2,4,2020-12-11_09h07.42.935,Context_Learning_Pilot,2020.1.3,MacIntel,60,,,,,,,3,media/ddnb.png,2,Symb,i,RT,0,0,77,0,1,6,1.8,4,i,1,2.40533,77,0,77,0,1,,,,,
,,,,,,,,,,,,,,,2,4,2020-12-11_09h07.42.935,Context_Learning_Pilot,2020.1.3,MacIntel,60,,,,,,,0,media/djnb.png,2,Symb,h,RT,0,0,78,0,1,6,1.8,4,h,1,0.717505,78,0,78,0,1,,,,,
,,,,,,,,,,,,,,,2,4,2020-12-11_09h07.42.935,Context_Learning_Pilot,2020.1.3,MacIntel,60,,,,,,,1,media/dnnb.png,1,Symb,i,RT,0,0,79,0,1,6,1.8,4,i,1,2.294545,79,0,79,0,1,,,,,
,,,,,,,,,,,,,,,2,4,2020-12-11_09h07.42.935,Context_Learning_Pilot,2020.1.3,MacIntel,60,,,,,,,1,media/dnnb.png,2,Symb,l,RT,0,0,80,0,1,6,1.8,4,l,1,0.574085,80,0,80,0,1,,,,,
,,,,,,,,,,,,,,,2,4,2020-12-11_09h07.42.935,Context_Learning_Pilot,2020.1.3,MacIntel,60,,,,,,,0,media/djnb.png,1,Symb,u,RT,0,0,81,0,1,6,1.8,4,h,0,0.70568,81,0,81,0,1,,,,,
,,,,,,,,,,,,,,,2,4,2020-12-11_09h07.42.935,Context_Learning_Pilot,2020.1.3,MacIntel,60,,,,,,,3,media/ddnb.png,2,Symb,i,RT,0,0,82,0,1,6,1.8,4,i,1,0.755475,82,0,82,0,1,,,,,
,,,,,,,,,,,,,,,2,4,2020-12-11_09h07.42.935,Context_Learning_Pilot,2020.1.3,MacIntel,60,,,,,,,0,media/djnb.png,2,Symb,h,RT,0,0,83,0,1,6,1.8,4,h,1,1.505035,83,0,83,0,1,,,,,
,,,,,,,,,,,,,,,2,4,2020-12-11_09h07.42.935,Context_Learning_Pilot,2020.1.3,MacIntel,60,,,,,,,0,media/djnb.png,1,Symb,u,RT,0,0,84,0,1,6,1.8,4,u,1,0.680935,84,0,84,0,1,,,,,
,,,,,,,,,,,,,,,2,4,2020-12-11_09h07.42.935,Context_Learning_Pilot,2020.1.3,MacIntel,60,,,,,,,2,media/dinb.png,1,Symb,h,RT,0,0,85,0,1,6,1.8,4,h,1,1.022255,85,0,85,0,1,,,,,
,,,,,,,,,,,,,,,2,4,2020-12-11_09h07.42.935,Context_Learning_Pilot,2020.1.3,MacIntel,60,,,,,,,3,media/ddnb.png,2,Symb,i,RT,0,0,86,0,1,6,1.8,4,i,1,0.713395,86,0,86,0,1,,,,,
,,,,,,,,,,,,,,,2,4,2020-12-11_09h07.42.935,Context_Learning_Pilot,2020.1.3,MacIntel,60,,,,,,,1,media/dnnb.png,1,Symb,i,RT,0,0,87,0,1,6,1.8,4,i,1,0.716855,87,0,87,0,1,,,,,
,,,,,,,,,,,,,,,2,4,2020-12-11_09h07.42.935,Context_Learning_Pilot,2020.1.3,MacIntel,60,,,,,,,2,media/dinb.png,1,Symb,h,RT,0,0,88,0,1,6,1.8,4,h,1,0.583035,88,0,88,0,1,,,,,
,,,,,,,,,,,,,,,2,4,2020-12-11_09h07.42.935,Context_Learning_Pilot,2020.1.3,MacIntel,60,,,,,,,3,media/ddnb.png,1,Symb,l,RT,0,0,89,0,1,6,1.8,4,i,0,0.60623,89,0,89,0,1,,,,,
