Import_Stim.thisRepN,Import_Stim.thisTrialN,Import_Stim.thisN,Import_Stim.thisIndex,Import_Stim.ran,Stim,CorrResp,Ctx_color,imStim,imStim_r,imStim_g,x_pos,y_pos,Hand,Feedback,participant,session,date,expName,psychopyVersion,OS,frameRate,stim_key_map_ctx1,stim_key_map_ctx2,Instr_RT_Press.keys,Instr_RT_Press.rt,Instr_Block_Num_Press.keys,Instr_Block_Num_Press.rt,Symbol,Shape,ctx,Stim_Type,Finger,Block_Type,Remap,Repeat_Count,Trial_Count,Grp_B,Brp_R,Block_Num,Set_Prep_Time,Session,RT_Press.keys,RT_Press.corr,RT_Press.rt,RT_Iter.thisRepN,RT_Iter.thisTrialN,RT_Iter.thisN,RT_Iter.thisIndex,RT_Iter.ran,RT_Block.thisRepN,RT_Block.thisTrialN,RT_Block.thisN,RT_Block.thisIndex,RT_Block.ran
0,0,0,0,1,0,h,red,media/djnb.png,media/djnb_r.png,media/djnb_g.png,-0.038,0.075,media/hand.png,media/check.png,2,2,2020-12-08_10h00.47.225,Context_Learning_Pilot,2020.1.3,MacIntel,60,,,,,,,,,,,,,,,,,,,,,,,,,,,,,,,,,
0,1,1,1,1,1,u,red,media/dnnb.png,media/dnnb_r.png,media/dnnb_g.png,0.014,0.1,media/hand.png,media/cross.png,2,2,2020-12-08_10h00.47.225,Context_Learning_Pilot,2020.1.3,MacIntel,60,,,,,,,,,,,,,,,,,,,,,,,,,,,,,,,,,
0,2,2,2,1,2,i,red,media/dinb.png,media/dinb_r.png,media/dinb_g.png,0.057,0.08,media/hand.png,media/check.png,2,2,2020-12-08_10h00.47.225,Context_Learning_Pilot,2020.1.3,MacIntel,60,,,,,,,,,,,,,,,,,,,,,,,,,,,,,,,,,
0,3,3,3,1,3,l,red,media/ddnb.png,media/ddnb_r.png,media/ddnb_g.png,0.1,0.04,media/hand.png,media/cross.png,2,2,2020-12-08_10h00.47.225,Context_Learning_Pilot,2020.1.3,MacIntel,60,,,,,,,,,,,,,,,,,,,,,,,,,,,,,,,,,
0,4,4,4,1,0,h,green,media/djnb.png,media/djnb_r.png,media/djnb_g.png,-0.038,0.075,media/hand.png,media/check.png,2,2,2020-12-08_10h00.47.225,Context_Learning_Pilot,2020.1.3,MacIntel,60,,,,,,,,,,,,,,,,,,,,,,,,,,,,,,,,,
0,5,5,5,1,1,u,green,media/dnnb.png,media/dnnb_r.png,media/dnnb_g.png,0.014,0.1,media/hand.png,media/cross.png,2,2,2020-12-08_10h00.47.225,Context_Learning_Pilot,2020.1.3,MacIntel,60,,,,,,,,,,,,,,,,,,,,,,,,,,,,,,,,,
0,6,6,6,1,2,i,green,media/dinb.png,media/dinb_r.png,media/dinb_g.png,0.057,0.08,media/hand.png,media/check.png,2,2,2020-12-08_10h00.47.225,Context_Learning_Pilot,2020.1.3,MacIntel,60,,,,,,,,,,,,,,,,,,,,,,,,,,,,,,,,,
,,,,,,,,,,,,,,,2,2,2020-12-08_10h00.47.225,Context_Learning_Pilot,2020.1.3,MacIntel,60,"[1,2,0,3]","[0,3,1,2]",h,107.75345,h,1.60548,0,media/djnb.png,1,Symb,u,RT,0,0,0,0,1,1,1.8,2,u,1,0.91926,0,0,0,0,1,,,,,
,,,,,,,,,,,,,,,2,2,2020-12-08_10h00.47.225,Context_Learning_Pilot,2020.1.3,MacIntel,60,,,,,,,3,media/ddnb.png,2,Symb,i,RT,0,0,1,0,1,1,1.8,2,i,1,1.08766,1,0,1,0,1,,,,,
,,,,,,,,,,,,,,,2,2,2020-12-08_10h00.47.225,Context_Learning_Pilot,2020.1.3,MacIntel,60,,,,,,,1,media/dnnb.png,1,Symb,i,RT,0,0,2,0,1,1,1.8,2,i,1,1.35041,2,0,2,0,1,,,,,
,,,,,,,,,,,,,,,2,2,2020-12-08_10h00.47.225,Context_Learning_Pilot,2020.1.3,MacIntel,60,,,,,,,2,media/dinb.png,1,Symb,h,RT,0,0,3,0,1,1,1.8,2,h,1,0.60324,3,0,3,0,1,,,,,
,,,,,,,,,,,,,,,2,2,2020-12-08_10h00.47.225,Context_Learning_Pilot,2020.1.3,MacIntel,60,,,,,,,0,media/djnb.png,2,Symb,h,RT,0,0,4,0,1,1,1.8,2,h,1,0.62272,4,0,4,0,1,,,,,
,,,,,,,,,,,,,,,2,2,2020-12-08_10h00.47.225,Context_Learning_Pilot,2020.1.3,MacIntel,60,,,,,,,2,media/dinb.png,1,Symb,h,RT,0,0,5,0,1,1,1.8,2,h,1,1.92162,5,0,5,0,1,,,,,
,,,,,,,,,,,,,,,2,2,2020-12-08_10h00.47.225,Context_Learning_Pilot,2020.1.3,MacIntel,60,,,,,,,1,media/dnnb.png,2,Symb,l,RT,0,0,6,0,1,1,1.8,2,i,0,1.45163,6,0,6,0,1,,,,,
,,,,,,,,,,,,,,,2,2,2020-12-08_10h00.47.225,Context_Learning_Pilot,2020.1.3,MacIntel,60,,,,,,,1,media/dnnb.png,1,Symb,i,RT,0,0,7,0,1,1,1.8,2,i,1,0.86466,7,0,7,0,1,,,,,
,,,,,,,,,,,,,,,2,2,2020-12-08_10h00.47.225,Context_Learning_Pilot,2020.1.3,MacIntel,60,,,,,,,3,media/ddnb.png,2,Symb,i,RT,0,0,8,0,1,1,1.8,2,i,1,0.7784,8,0,8,0,1,,,,,
,,,,,,,,,,,,,,,2,2,2020-12-08_10h00.47.225,Context_Learning_Pilot,2020.1.3,MacIntel,60,,,,,,,3,media/ddnb.png,1,Symb,l,RT,0,0,9,0,1,1,1.8,2,l,1,0.49995,9,0,9,0,1,,,,,
,,,,,,,,,,,,,,,2,2,2020-12-08_10h00.47.225,Context_Learning_Pilot,2020.1.3,MacIntel,60,,,,,,,0,media/djnb.png,2,Symb,h,RT,0,0,10,0,1,1,1.8,2,h,1,0.763835,10,0,10,0,1,,,,,
,,,,,,,,,,,,,,,2,2,2020-12-08_10h00.47.225,Context_Learning_Pilot,2020.1.3,MacIntel,60,,,,,,,2,media/dinb.png,2,Symb,u,RT,0,0,11,0,1,1,1.8,2,u,1,0.80537,11,0,11,0,1,,,,,
,,,,,,,,,,,,,,,2,2,2020-12-08_10h00.47.225,Context_Learning_Pilot,2020.1.3,MacIntel,60,,,,,,,2,media/dinb.png,2,Symb,u,RT,0,0,12,0,1,1,1.8,2,u,1,1.18874,12,0,12,0,1,,,,,
,,,,,,,,,,,,,,,2,2,2020-12-08_10h00.47.225,Context_Learning_Pilot,2020.1.3,MacIntel,60,,,,,,,1,media/dnnb.png,2,Symb,l,RT,0,0,13,0,1,1,1.8,2,l,1,1.116045,13,0,13,0,1,,,,,
,,,,,,,,,,,,,,,2,2,2020-12-08_10h00.47.225,Context_Learning_Pilot,2020.1.3,MacIntel,60,,,,,,,3,media/ddnb.png,1,Symb,l,RT,0,0,14,0,1,1,1.8,2,i,0,0.698705,14,0,14,0,1,,,,,
,,,,,,,,,,,,,,,2,2,2020-12-08_10h00.47.225,Context_Learning_Pilot,2020.1.3,MacIntel,60,,,,,,,0,media/djnb.png,1,Symb,u,RT,0,0,15,0,1,1,1.8,2,u,1,0.841145,15,0,15,0,1,,,,,
,,,,,,,,,,,,,,,2,2,2020-12-08_10h00.47.225,Context_Learning_Pilot,2020.1.3,MacIntel,60,,,,,,,2,media/dinb.png,2,Symb,u,RT,0,0,16,0,1,1,1.8,2,u,1,0.877215,16,0,16,0,1,,,,,
,,,,,,,,,,,,,,,2,2,2020-12-08_10h00.47.225,Context_Learning_Pilot,2020.1.3,MacIntel,60,,,,,,,1,media/dnnb.png,1,Symb,i,RT,0,0,17,0,1,1,1.8,2,l,0,0.93717,17,0,17,0,1,,,,,
,,,,,,,,,,,,,,,2,2,2020-12-08_10h00.47.225,Context_Learning_Pilot,2020.1.3,MacIntel,60,,,,,,,3,media/ddnb.png,2,Symb,i,RT,0,0,18,0,1,1,1.8,2,i,1,2.04094,18,0,18,0,1,,,,,
,,,,,,,,,,,,,,,2,2,2020-12-08_10h00.47.225,Context_Learning_Pilot,2020.1.3,MacIntel,60,,,,,,,3,media/ddnb.png,2,Symb,i,RT,0,0,19,0,1,1,1.8,2,i,1,0.79935,19,0,19,0,1,,,,,
,,,,,,,,,,,,,,,2,2,2020-12-08_10h00.47.225,Context_Learning_Pilot,2020.1.3,MacIntel,60,,,,,,,2,media/dinb.png,2,Symb,u,RT,0,0,20,0,1,1,1.8,2,u,1,1.22806,20,0,20,0,1,,,,,
,,,,,,,,,,,,,,,2,2,2020-12-08_10h00.47.225,Context_Learning_Pilot,2020.1.3,MacIntel,60,,,,,,,0,media/djnb.png,1,Symb,u,RT,0,0,21,0,1,1,1.8,2,u,1,2.32163,21,0,21,0,1,,,,,
,,,,,,,,,,,,,,,2,2,2020-12-08_10h00.47.225,Context_Learning_Pilot,2020.1.3,MacIntel,60,,,,,,,0,media/djnb.png,2,Symb,h,RT,0,0,22,0,1,1,1.8,2,h,1,3.16608,22,0,22,0,1,,,,,
,,,,,,,,,,,,,,,2,2,2020-12-08_10h00.47.225,Context_Learning_Pilot,2020.1.3,MacIntel,60,,,,,,,1,media/dnnb.png,2,Symb,l,RT,0,0,23,0,1,1,1.8,2,l,1,1.29678,23,0,23,0,1,,,,,
,,,,,,,,,,,,,,,2,2,2020-12-08_10h00.47.225,Context_Learning_Pilot,2020.1.3,MacIntel,60,,,,,,,2,media/dinb.png,1,Symb,h,RT,0,0,24,0,1,1,1.8,2,h,1,0.779345,24,0,24,0,1,,,,,
,,,,,,,,,,,,,,,2,2,2020-12-08_10h00.47.225,Context_Learning_Pilot,2020.1.3,MacIntel,60,,,,,,,2,media/dinb.png,1,Symb,h,RT,0,0,25,0,1,1,1.8,2,h,1,0.534175,25,0,25,0,1,,,,,
,,,,,,,,,,,,,,,2,2,2020-12-08_10h00.47.225,Context_Learning_Pilot,2020.1.3,MacIntel,60,,,,,,,0,media/djnb.png,2,Symb,h,RT,0,0,26,0,1,1,1.8,2,h,1,0.72923,26,0,26,0,1,,,,,
,,,,,,,,,,,,,,,2,2,2020-12-08_10h00.47.225,Context_Learning_Pilot,2020.1.3,MacIntel,60,,,,,,,3,media/ddnb.png,1,Symb,l,RT,0,0,27,0,1,1,1.8,2,l,1,1.492135,27,0,27,0,1,,,,,
,,,,,,,,,,,,,,,2,2,2020-12-08_10h00.47.225,Context_Learning_Pilot,2020.1.3,MacIntel,60,,,,,,,1,media/dnnb.png,2,Symb,l,RT,0,0,28,0,1,1,1.8,2,l,1,0.68615,28,0,28,0,1,,,,,
,,,,,,,,,,,,,,,2,2,2020-12-08_10h00.47.225,Context_Learning_Pilot,2020.1.3,MacIntel,60,,,,,,,0,media/djnb.png,1,Symb,u,RT,0,0,29,0,1,1,1.8,2,u,1,1.243505,29,0,29,0,1,,,,,
,,,,,,,,,,,,,,,2,2,2020-12-08_10h00.47.225,Context_Learning_Pilot,2020.1.3,MacIntel,60,,,,,,,1,media/dnnb.png,1,Symb,i,RT,0,0,30,0,1,1,1.8,2,i,1,2.72902,30,0,30,0,1,,,,,
,,,,,,,,,,,,,,,2,2,2020-12-08_10h00.47.225,Context_Learning_Pilot,2020.1.3,MacIntel,60,,,,,,,3,media/ddnb.png,1,Symb,l,RT,0,0,31,0,1,1,1.8,2,l,1,0.744735,31,0,31,0,1,,,,,
,,,,,,,,,,,,,,,2,2,2020-12-08_10h00.47.225,Context_Learning_Pilot,2020.1.3,MacIntel,60,,,,,,,1,media/dnnb.png,2,Symb,l,RT,0,0,32,0,1,1,1.8,2,l,1,1.33777,32,0,32,0,1,,,,,
,,,,,,,,,,,,,,,2,2,2020-12-08_10h00.47.225,Context_Learning_Pilot,2020.1.3,MacIntel,60,,,,,,,1,media/dnnb.png,1,Symb,i,RT,0,0,33,0,1,1,1.8,2,i,1,1.086635,33,0,33,0,1,,,,,
,,,,,,,,,,,,,,,2,2,2020-12-08_10h00.47.225,Context_Learning_Pilot,2020.1.3,MacIntel,60,,,,,,,0,media/djnb.png,2,Symb,h,RT,0,0,34,0,1,1,1.8,2,h,1,0.94448,34,0,34,0,1,,,,,
,,,,,,,,,,,,,,,2,2,2020-12-08_10h00.47.225,Context_Learning_Pilot,2020.1.3,MacIntel,60,,,,,,,0,media/djnb.png,1,Symb,u,RT,0,0,35,0,1,1,1.8,2,u,1,0.958225,35,0,35,0,1,,,,,
,,,,,,,,,,,,,,,2,2,2020-12-08_10h00.47.225,Context_Learning_Pilot,2020.1.3,MacIntel,60,,,,,,,3,media/ddnb.png,2,Symb,i,RT,0,0,36,0,1,1,1.8,2,i,1,1.042535,36,0,36,0,1,,,,,
,,,,,,,,,,,,,,,2,2,2020-12-08_10h00.47.225,Context_Learning_Pilot,2020.1.3,MacIntel,60,,,,,,,2,media/dinb.png,2,Symb,u,RT,0,0,37,0,1,1,1.8,2,u,1,0.923395,37,0,37,0,1,,,,,
,,,,,,,,,,,,,,,2,2,2020-12-08_10h00.47.225,Context_Learning_Pilot,2020.1.3,MacIntel,60,,,,,,,0,media/djnb.png,2,Symb,h,RT,0,0,38,0,1,1,1.8,2,h,1,0.71854,38,0,38,0,1,,,,,
,,,,,,,,,,,,,,,2,2,2020-12-08_10h00.47.225,Context_Learning_Pilot,2020.1.3,MacIntel,60,,,,,,,3,media/ddnb.png,1,Symb,l,RT,0,0,39,0,1,1,1.8,2,l,1,1.0442,39,0,39,0,1,,,,,
,,,,,,,,,,,,,,,2,2,2020-12-08_10h00.47.225,Context_Learning_Pilot,2020.1.3,MacIntel,60,,,,,,,2,media/dinb.png,1,Symb,h,RT,0,0,40,0,1,1,1.8,2,h,1,1.072605,40,0,40,0,1,,,,,
,,,,,,,,,,,,,,,2,2,2020-12-08_10h00.47.225,Context_Learning_Pilot,2020.1.3,MacIntel,60,,,,,,,1,media/dnnb.png,2,Symb,l,RT,0,0,41,0,1,1,1.8,2,i,0,1.32502,41,0,41,0,1,,,,,
,,,,,,,,,,,,,,,2,2,2020-12-08_10h00.47.225,Context_Learning_Pilot,2020.1.3,MacIntel,60,,,,,,,3,media/ddnb.png,2,Symb,i,RT,0,0,42,0,1,1,1.8,2,i,1,0.85093,42,0,42,0,1,,,,,
,,,,,,,,,,,,,,,2,2,2020-12-08_10h00.47.225,Context_Learning_Pilot,2020.1.3,MacIntel,60,,,,,,,2,media/dinb.png,2,Symb,u,RT,0,0,43,0,1,1,1.8,2,u,1,1.156245,43,0,43,0,1,,,,,
,,,,,,,,,,,,,,,2,2,2020-12-08_10h00.47.225,Context_Learning_Pilot,2020.1.3,MacIntel,60,,,,,,,0,media/djnb.png,1,Symb,u,RT,0,0,44,0,1,1,1.8,2,u,1,1.20342,44,0,44,0,1,,,,,
,,,,,,,,,,,,,,,2,2,2020-12-08_10h00.47.225,Context_Learning_Pilot,2020.1.3,MacIntel,60,,,,,,,2,media/dinb.png,1,Symb,h,RT,0,0,45,0,1,1,1.8,2,h,1,0.843165,45,0,45,0,1,,,,,
,,,,,,,,,,,,,,,2,2,2020-12-08_10h00.47.225,Context_Learning_Pilot,2020.1.3,MacIntel,60,,,,,,,3,media/ddnb.png,1,Symb,l,RT,0,0,46,0,1,1,1.8,2,l,1,1.41181,46,0,46,0,1,,,,,
,,,,,,,,,,,,,,,2,2,2020-12-08_10h00.47.225,Context_Learning_Pilot,2020.1.3,MacIntel,60,,,,,,,1,media/dnnb.png,1,Symb,i,RT,0,0,47,0,1,1,1.8,2,i,1,0.84331,47,0,47,0,1,,,,,
,,,,,,,,,,,,,,,2,2,2020-12-08_10h00.47.225,Context_Learning_Pilot,2020.1.3,MacIntel,60,,,,,,,2,media/dinb.png,2,Symb,u,RT,0,0,48,0,1,1,1.8,2,u,1,1.116465,48,0,48,0,1,,,,,
,,,,,,,,,,,,,,,2,2,2020-12-08_10h00.47.225,Context_Learning_Pilot,2020.1.3,MacIntel,60,,,,,,,3,media/ddnb.png,2,Symb,i,RT,0,0,49,0,1,1,1.8,2,l,0,0.82125,49,0,49,0,1,,,,,
,,,,,,,,,,,,,,,2,2,2020-12-08_10h00.47.225,Context_Learning_Pilot,2020.1.3,MacIntel,60,,,,,,,2,media/dinb.png,1,Symb,h,RT,0,0,50,0,1,1,1.8,2,h,1,1.039655,50,0,50,0,1,,,,,
,,,,,,,,,,,,,,,2,2,2020-12-08_10h00.47.225,Context_Learning_Pilot,2020.1.3,MacIntel,60,,,,,,,0,media/djnb.png,2,Symb,h,RT,0,0,51,0,1,1,1.8,2,h,1,0.710005,51,0,51,0,1,,,,,
,,,,,,,,,,,,,,,2,2,2020-12-08_10h00.47.225,Context_Learning_Pilot,2020.1.3,MacIntel,60,,,,,,,0,media/djnb.png,1,Symb,u,RT,0,0,52,0,1,1,1.8,2,u,1,0.59537,52,0,52,0,1,,,,,
,,,,,,,,,,,,,,,2,2,2020-12-08_10h00.47.225,Context_Learning_Pilot,2020.1.3,MacIntel,60,,,,,,,2,media/dinb.png,2,Symb,u,RT,0,0,53,0,1,1,1.8,2,u,1,1.64918,53,0,53,0,1,,,,,
,,,,,,,,,,,,,,,2,2,2020-12-08_10h00.47.225,Context_Learning_Pilot,2020.1.3,MacIntel,60,,,,,,,3,media/ddnb.png,1,Symb,l,RT,0,0,54,0,1,1,1.8,2,l,1,1.409325,54,0,54,0,1,,,,,
,,,,,,,,,,,,,,,2,2,2020-12-08_10h00.47.225,Context_Learning_Pilot,2020.1.3,MacIntel,60,,,,,,,3,media/ddnb.png,2,Symb,i,RT,0,0,55,0,1,1,1.8,2,i,1,0.750675,55,0,55,0,1,,,,,
,,,,,,,,,,,,,,,2,2,2020-12-08_10h00.47.225,Context_Learning_Pilot,2020.1.3,MacIntel,60,,,,,,,1,media/dnnb.png,1,Symb,i,RT,0,0,56,0,1,1,1.8,2,i,1,1.12949,56,0,56,0,1,,,,,
,,,,,,,,,,,,,,,2,2,2020-12-08_10h00.47.225,Context_Learning_Pilot,2020.1.3,MacIntel,60,,,,,,,2,media/dinb.png,1,Symb,h,RT,0,0,57,0,1,1,1.8,2,h,1,1.02767,57,0,57,0,1,,,,,
,,,,,,,,,,,,,,,2,2,2020-12-08_10h00.47.225,Context_Learning_Pilot,2020.1.3,MacIntel,60,,,,,,,1,media/dnnb.png,1,Symb,i,RT,0,0,58,0,1,1,1.8,2,i,1,1.64318,58,0,58,0,1,,,,,
,,,,,,,,,,,,,,,2,2,2020-12-08_10h00.47.225,Context_Learning_Pilot,2020.1.3,MacIntel,60,,,,,,,1,media/dnnb.png,2,Symb,l,RT,0,0,59,0,1,1,1.8,2,l,1,0.74767,59,0,59,0,1,,,,,
,,,,,,,,,,,,,,,2,2,2020-12-08_10h00.47.225,Context_Learning_Pilot,2020.1.3,MacIntel,60,,,,,,,1,media/dnnb.png,2,Symb,l,RT,0,0,60,0,1,1,1.8,2,l,1,0.60275,60,0,60,0,1,,,,,
,,,,,,,,,,,,,,,2,2,2020-12-08_10h00.47.225,Context_Learning_Pilot,2020.1.3,MacIntel,60,,,,,,,0,media/djnb.png,2,Symb,h,RT,0,0,61,0,1,1,1.8,2,h,1,0.80522,61,0,61,0,1,,,,,
,,,,,,,,,,,,,,,2,2,2020-12-08_10h00.47.225,Context_Learning_Pilot,2020.1.3,MacIntel,60,,,,,,,0,media/djnb.png,1,Symb,u,RT,0,0,62,0,1,1,1.8,2,u,1,0.75488,62,0,62,0,1,,,,,
,,,,,,,,,,,,,,,2,2,2020-12-08_10h00.47.225,Context_Learning_Pilot,2020.1.3,MacIntel,60,,,,,,,3,media/ddnb.png,1,Symb,l,RT,0,0,63,0,1,1,1.8,2,l,1,1.269785,63,0,63,0,1,,,,,
,,,,,,,,,,,,,,,2,2,2020-12-08_10h00.47.225,Context_Learning_Pilot,2020.1.3,MacIntel,60,,,,,,,1,media/dnnb.png,2,Symb,l,RT,0,0,64,0,1,1,1.8,2,l,1,0.80713,64,0,64,0,1,,,,,
,,,,,,,,,,,,,,,2,2,2020-12-08_10h00.47.225,Context_Learning_Pilot,2020.1.3,MacIntel,60,,,,,,,2,media/dinb.png,1,Symb,h,RT,0,0,65,0,1,1,1.8,2,h,1,1.1309,65,0,65,0,1,,,,,
,,,,,,,,,,,,,,,2,2,2020-12-08_10h00.47.225,Context_Learning_Pilot,2020.1.3,MacIntel,60,,,,,,,0,media/djnb.png,2,Symb,h,RT,0,0,66,0,1,1,1.8,2,h,1,1.07978,66,0,66,0,1,,,,,
,,,,,,,,,,,,,,,2,2,2020-12-08_10h00.47.225,Context_Learning_Pilot,2020.1.3,MacIntel,60,,,,,,,3,media/ddnb.png,2,Symb,i,RT,0,0,67,0,1,1,1.8,2,i,1,1.66509,67,0,67,0,1,,,,,
,,,,,,,,,,,,,,,2,2,2020-12-08_10h00.47.225,Context_Learning_Pilot,2020.1.3,MacIntel,60,,,,,,,0,media/djnb.png,2,Symb,h,RT,0,0,68,0,1,1,1.8,2,h,1,0.68184,68,0,68,0,1,,,,,
,,,,,,,,,,,,,,,2,2,2020-12-08_10h00.47.225,Context_Learning_Pilot,2020.1.3,MacIntel,60,,,,,,,2,media/dinb.png,2,Symb,u,RT,0,0,69,0,1,1,1.8,2,u,1,1.070085,69,0,69,0,1,,,,,
,,,,,,,,,,,,,,,2,2,2020-12-08_10h00.47.225,Context_Learning_Pilot,2020.1.3,MacIntel,60,,,,,,,2,media/dinb.png,2,Symb,u,RT,0,0,70,0,1,1,1.8,2,u,1,0.572385,70,0,70,0,1,,,,,
,,,,,,,,,,,,,,,2,2,2020-12-08_10h00.47.225,Context_Learning_Pilot,2020.1.3,MacIntel,60,,,,,,,3,media/ddnb.png,1,Symb,l,RT,0,0,71,0,1,1,1.8,2,l,1,1.105545,71,0,71,0,1,,,,,
,,,,,,,,,,,,,,,2,2,2020-12-08_10h00.47.225,Context_Learning_Pilot,2020.1.3,MacIntel,60,,,,,,,3,media/ddnb.png,2,Symb,i,RT,0,0,72,0,1,1,1.8,2,i,1,0.83141,72,0,72,0,1,,,,,
,,,,,,,,,,,,,,,2,2,2020-12-08_10h00.47.225,Context_Learning_Pilot,2020.1.3,MacIntel,60,,,,,,,0,media/djnb.png,1,Symb,u,RT,0,0,73,0,1,1,1.8,2,u,1,1.07958,73,0,73,0,1,,,,,
,,,,,,,,,,,,,,,2,2,2020-12-08_10h00.47.225,Context_Learning_Pilot,2020.1.3,MacIntel,60,,,,,,,1,media/dnnb.png,1,Symb,i,RT,0,0,74,0,1,1,1.8,2,i,1,2.14259,74,0,74,0,1,,,,,
,,,,,,,,,,,,,,,2,2,2020-12-08_10h00.47.225,Context_Learning_Pilot,2020.1.3,MacIntel,60,,,,,,,1,media/dnnb.png,1,Symb,i,RT,0,0,75,0,1,1,1.8,2,i,1,0.647925,75,0,75,0,1,,,,,
,,,,,,,,,,,,,,,2,2,2020-12-08_10h00.47.225,Context_Learning_Pilot,2020.1.3,MacIntel,60,,,,,,,3,media/ddnb.png,1,Symb,l,RT,0,0,76,0,1,1,1.8,2,l,1,1.152955,76,0,76,0,1,,,,,
,,,,,,,,,,,,,,,2,2,2020-12-08_10h00.47.225,Context_Learning_Pilot,2020.1.3,MacIntel,60,,,,,,,0,media/djnb.png,1,Symb,u,RT,0,0,77,0,1,1,1.8,2,u,1,1.018875,77,0,77,0,1,,,,,
,,,,,,,,,,,,,,,2,2,2020-12-08_10h00.47.225,Context_Learning_Pilot,2020.1.3,MacIntel,60,,,,,,,2,media/dinb.png,1,Symb,h,RT,0,0,78,0,1,1,1.8,2,h,1,1.09964,78,0,78,0,1,,,,,
,,,,,,,,,,,,,,,2,2,2020-12-08_10h00.47.225,Context_Learning_Pilot,2020.1.3,MacIntel,60,,,,,,,1,media/dnnb.png,2,Symb,l,RT,0,0,79,0,1,1,1.8,2,l,1,1.02559,79,0,79,0,1,,,,,
,,,,,,,,,,,,,,,2,2,2020-12-08_10h00.47.225,Context_Learning_Pilot,2020.1.3,MacIntel,60,,,,,,,1,media/dnnb.png,1,Symb,i,RT,0,0,80,0,1,1,1.8,2,i,1,0.653315,80,0,80,0,1,,,,,
,,,,,,,,,,,,,,,2,2,2020-12-08_10h00.47.225,Context_Learning_Pilot,2020.1.3,MacIntel,60,,,,,,,2,media/dinb.png,2,Symb,u,RT,0,0,81,0,1,1,1.8,2,u,1,1.036165,81,0,81,0,1,,,,,
,,,,,,,,,,,,,,,2,2,2020-12-08_10h00.47.225,Context_Learning_Pilot,2020.1.3,MacIntel,60,,,,,,,2,media/dinb.png,2,Symb,u,RT,0,0,82,0,1,1,1.8,2,u,1,0.77305,82,0,82,0,1,,,,,
,,,,,,,,,,,,,,,2,2,2020-12-08_10h00.47.225,Context_Learning_Pilot,2020.1.3,MacIntel,60,,,,,,,3,media/ddnb.png,2,Symb,i,RT,0,0,83,0,1,1,1.8,2,i,1,1.38976,83,0,83,0,1,,,,,
,,,,,,,,,,,,,,,2,2,2020-12-08_10h00.47.225,Context_Learning_Pilot,2020.1.3,MacIntel,60,,,,,,,3,media/ddnb.png,1,Symb,l,RT,0,0,84,0,1,1,1.8,2,l,1,0.76096,84,0,84,0,1,,,,,
,,,,,,,,,,,,,,,2,2,2020-12-08_10h00.47.225,Context_Learning_Pilot,2020.1.3,MacIntel,60,,,,,,,2,media/dinb.png,1,Symb,h,RT,0,0,85,0,1,1,1.8,2,h,1,1.233525,85,0,85,0,1,,,,,
,,,,,,,,,,,,,,,2,2,2020-12-08_10h00.47.225,Context_Learning_Pilot,2020.1.3,MacIntel,60,,,,,,,1,media/dnnb.png,2,Symb,l,RT,0,0,86,0,1,1,1.8,2,l,1,0.760365,86,0,86,0,1,,,,,
,,,,,,,,,,,,,,,2,2,2020-12-08_10h00.47.225,Context_Learning_Pilot,2020.1.3,MacIntel,60,,,,,,,0,media/djnb.png,2,Symb,h,RT,0,0,87,0,1,1,1.8,2,h,1,0.751985,87,0,87,0,1,,,,,
,,,,,,,,,,,,,,,2,2,2020-12-08_10h00.47.225,Context_Learning_Pilot,2020.1.3,MacIntel,60,,,,,,,0,media/djnb.png,1,Symb,u,RT,0,0,88,0,1,1,1.8,2,u,1,0.651305,88,0,88,0,1,,,,,
,,,,,,,,,,,,,,,2,2,2020-12-08_10h00.47.225,Context_Learning_Pilot,2020.1.3,MacIntel,60,,,,,,,3,media/ddnb.png,2,Symb,i,RT,0,0,89,0,1,1,1.8,2,i,1,1.02017,89,0,89,0,1,,,,,
,,,,,,,,,,,,,,,2,2,2020-12-08_10h00.47.225,Context_Learning_Pilot,2020.1.3,MacIntel,60,,,,,,,0,media/djnb.png,2,Symb,h,RT,0,0,90,0,1,1,1.8,2,h,1,0.700905,90,0,90,0,1,,,,,
,,,,,,,,,,,,,,,2,2,2020-12-08_10h00.47.225,Context_Learning_Pilot,2020.1.3,MacIntel,60,,,,,,,0,media/djnb.png,1,Symb,u,RT,0,0,91,0,1,1,1.8,2,u,1,1.97161,91,0,91,0,1,,,,,
,,,,,,,,,,,,,,,2,2,2020-12-08_10h00.47.225,Context_Learning_Pilot,2020.1.3,MacIntel,60,,,,,,,1,media/dnnb.png,1,Symb,i,RT,0,0,92,0,1,1,1.8,2,i,1,2.0855,92,0,92,0,1,,,,,
,,,,,,,,,,,,,,,2,2,2020-12-08_10h00.47.225,Context_Learning_Pilot,2020.1.3,MacIntel,60,,,,,,,1,media/dnnb.png,2,Symb,l,RT,0,0,93,0,1,1,1.8,2,l,1,0.597715,93,0,93,0,1,,,,,
,,,,,,,,,,,,,,,2,2,2020-12-08_10h00.47.225,Context_Learning_Pilot,2020.1.3,MacIntel,60,,,,,,,2,media/dinb.png,1,Symb,h,RT,0,0,94,0,1,1,1.8,2,h,1,0.87498,94,0,94,0,1,,,,,
,,,,,,,,,,,,,,,2,2,2020-12-08_10h00.47.225,Context_Learning_Pilot,2020.1.3,MacIntel,60,,,,,,,3,media/ddnb.png,1,Symb,l,RT,0,0,95,0,1,1,1.8,2,l,1,1.099555,95,0,95,0,1,,,,,
,,,,,,,,,,,,,,,2,2,2020-12-08_10h00.47.225,Context_Learning_Pilot,2020.1.3,MacIntel,60,,,,,,,,,,,,,,,,,,,,,,,,,,,,,0,0,0,0,1
,,,,,,,,,,,,,,,2,2,2020-12-08_10h00.47.225,Context_Learning_Pilot,2020.1.3,MacIntel,60,,,,,h,1.7335,0,media/djnb.png,2,Symb,h,RT,0,0,0,0,1,2,1.8,2,h,1,0.838715,0,0,0,0,1,,,,,
,,,,,,,,,,,,,,,2,2,2020-12-08_10h00.47.225,Context_Learning_Pilot,2020.1.3,MacIntel,60,,,,,,,2,media/dinb.png,2,Symb,u,RT,0,0,1,0,1,2,1.8,2,u,1,1.201455,1,0,1,0,1,,,,,
,,,,,,,,,,,,,,,2,2,2020-12-08_10h00.47.225,Context_Learning_Pilot,2020.1.3,MacIntel,60,,,,,,,2,media/dinb.png,2,Symb,u,RT,0,0,2,0,1,2,1.8,2,u,1,0.536135,2,0,2,0,1,,,,,
,,,,,,,,,,,,,,,2,2,2020-12-08_10h00.47.225,Context_Learning_Pilot,2020.1.3,MacIntel,60,,,,,,,3,media/ddnb.png,2,Symb,i,RT,0,0,3,0,1,2,1.8,2,i,1,1.276515,3,0,3,0,1,,,,,
,,,,,,,,,,,,,,,2,2,2020-12-08_10h00.47.225,Context_Learning_Pilot,2020.1.3,MacIntel,60,,,,,,,0,media/djnb.png,1,Symb,u,RT,0,0,4,0,1,2,1.8,2,u,1,0.92664,4,0,4,0,1,,,,,
,,,,,,,,,,,,,,,2,2,2020-12-08_10h00.47.225,Context_Learning_Pilot,2020.1.3,MacIntel,60,,,,,,,2,media/dinb.png,1,Symb,h,RT,0,0,5,0,1,2,1.8,2,h,1,0.62682,5,0,5,0,1,,,,,
,,,,,,,,,,,,,,,2,2,2020-12-08_10h00.47.225,Context_Learning_Pilot,2020.1.3,MacIntel,60,,,,,,,0,media/djnb.png,1,Symb,u,RT,0,0,6,0,1,2,1.8,2,u,1,1.88974,6,0,6,0,1,,,,,
,,,,,,,,,,,,,,,2,2,2020-12-08_10h00.47.225,Context_Learning_Pilot,2020.1.3,MacIntel,60,,,,,,,1,media/dnnb.png,2,Symb,l,RT,0,0,7,0,1,2,1.8,2,l,1,1.16018,7,0,7,0,1,,,,,
,,,,,,,,,,,,,,,2,2,2020-12-08_10h00.47.225,Context_Learning_Pilot,2020.1.3,MacIntel,60,,,,,,,3,media/ddnb.png,2,Symb,i,RT,0,0,8,0,1,2,1.8,2,i,1,1.00571,8,0,8,0,1,,,,,
,,,,,,,,,,,,,,,2,2,2020-12-08_10h00.47.225,Context_Learning_Pilot,2020.1.3,MacIntel,60,,,,,,,3,media/ddnb.png,1,Symb,l,RT,0,0,9,0,1,2,1.8,2,l,1,0.747595,9,0,9,0,1,,,,,
,,,,,,,,,,,,,,,2,2,2020-12-08_10h00.47.225,Context_Learning_Pilot,2020.1.3,MacIntel,60,,,,,,,0,media/djnb.png,2,Symb,h,RT,0,0,10,0,1,2,1.8,2,h,1,0.76535,10,0,10,0,1,,,,,
,,,,,,,,,,,,,,,2,2,2020-12-08_10h00.47.225,Context_Learning_Pilot,2020.1.3,MacIntel,60,,,,,,,2,media/dinb.png,1,Symb,h,RT,0,0,11,0,1,2,1.8,2,h,1,1.08865,11,0,11,0,1,,,,,
,,,,,,,,,,,,,,,2,2,2020-12-08_10h00.47.225,Context_Learning_Pilot,2020.1.3,MacIntel,60,,,,,,,1,media/dnnb.png,1,Symb,i,RT,0,0,12,0,1,2,1.8,2,l,0,1.046695,12,0,12,0,1,,,,,
,,,,,,,,,,,,,,,2,2,2020-12-08_10h00.47.225,Context_Learning_Pilot,2020.1.3,MacIntel,60,,,,,,,3,media/ddnb.png,1,Symb,l,RT,0,0,13,0,1,2,1.8,2,l,1,1.59316,13,0,13,0,1,,,,,
,,,,,,,,,,,,,,,2,2,2020-12-08_10h00.47.225,Context_Learning_Pilot,2020.1.3,MacIntel,60,,,,,,,1,media/dnnb.png,1,Symb,i,RT,0,0,14,0,1,2,1.8,2,i,1,0.93566,14,0,14,0,1,,,,,
,,,,,,,,,,,,,,,2,2,2020-12-08_10h00.47.225,Context_Learning_Pilot,2020.1.3,MacIntel,60,,,,,,,1,media/dnnb.png,2,Symb,l,RT,0,0,15,0,1,2,1.8,2,l,1,0.68768,15,0,15,0,1,,,,,
,,,,,,,,,,,,,,,2,2,2020-12-08_10h00.47.225,Context_Learning_Pilot,2020.1.3,MacIntel,60,,,,,,,2,media/dinb.png,2,Symb,u,RT,0,0,16,0,1,2,1.8,2,u,1,1.806,16,0,16,0,1,,,,,
,,,,,,,,,,,,,,,2,2,2020-12-08_10h00.47.225,Context_Learning_Pilot,2020.1.3,MacIntel,60,,,,,,,0,media/djnb.png,2,Symb,h,RT,0,0,17,0,1,2,1.8,2,h,1,2.004255,17,0,17,0,1,,,,,
,,,,,,,,,,,,,,,2,2,2020-12-08_10h00.47.225,Context_Learning_Pilot,2020.1.3,MacIntel,60,,,,,,,1,media/dnnb.png,1,Symb,i,RT,0,0,18,0,1,2,1.8,2,i,1,1.155005,18,0,18,0,1,,,,,
,,,,,,,,,,,,,,,2,2,2020-12-08_10h00.47.225,Context_Learning_Pilot,2020.1.3,MacIntel,60,,,,,,,0,media/djnb.png,1,Symb,u,RT,0,0,19,0,1,2,1.8,2,u,1,1.01598,19,0,19,0,1,,,,,
,,,,,,,,,,,,,,,2,2,2020-12-08_10h00.47.225,Context_Learning_Pilot,2020.1.3,MacIntel,60,,,,,,,3,media/ddnb.png,2,Symb,i,RT,0,0,20,0,1,2,1.8,2,i,1,2.09573,20,0,20,0,1,,,,,
,,,,,,,,,,,,,,,2,2,2020-12-08_10h00.47.225,Context_Learning_Pilot,2020.1.3,MacIntel,60,,,,,,,3,media/ddnb.png,2,Symb,i,RT,0,0,21,0,1,2,1.8,2,i,1,0.610385,21,0,21,0,1,,,,,
,,,,,,,,,,,,,,,2,2,2020-12-08_10h00.47.225,Context_Learning_Pilot,2020.1.3,MacIntel,60,,,,,,,1,media/dnnb.png,2,Symb,l,RT,0,0,22,0,1,2,1.8,2,l,1,0.75507,22,0,22,0,1,,,,,
,,,,,,,,,,,,,,,2,2,2020-12-08_10h00.47.225,Context_Learning_Pilot,2020.1.3,MacIntel,60,,,,,,,0,media/djnb.png,2,Symb,h,RT,0,0,23,0,1,2,1.8,2,h,1,1.03857,23,0,23,0,1,,,,,
,,,,,,,,,,,,,,,2,2,2020-12-08_10h00.47.225,Context_Learning_Pilot,2020.1.3,MacIntel,60,,,,,,,2,media/dinb.png,1,Symb,h,RT,0,0,24,0,1,2,1.8,2,h,1,1.20511,24,0,24,0,1,,,,,
,,,,,,,,,,,,,,,2,2,2020-12-08_10h00.47.225,Context_Learning_Pilot,2020.1.3,MacIntel,60,,,,,,,1,media/dnnb.png,1,Symb,i,RT,0,0,25,0,1,2,1.8,2,i,1,1.501925,25,0,25,0,1,,,,,
,,,,,,,,,,,,,,,2,2,2020-12-08_10h00.47.225,Context_Learning_Pilot,2020.1.3,MacIntel,60,,,,,,,2,media/dinb.png,2,Symb,u,RT,0,0,26,0,1,2,1.8,2,u,1,1.1087,26,0,26,0,1,,,,,
,,,,,,,,,,,,,,,2,2,2020-12-08_10h00.47.225,Context_Learning_Pilot,2020.1.3,MacIntel,60,,,,,,,3,media/ddnb.png,1,Symb,l,RT,0,0,27,0,1,2,1.8,2,l,1,1.23358,27,0,27,0,1,,,,,
,,,,,,,,,,,,,,,2,2,2020-12-08_10h00.47.225,Context_Learning_Pilot,2020.1.3,MacIntel,60,,,,,,,1,media/dnnb.png,2,Symb,l,RT,0,0,28,0,1,2,1.8,2,l,1,0.94102,28,0,28,0,1,,,,,
,,,,,,,,,,,,,,,2,2,2020-12-08_10h00.47.225,Context_Learning_Pilot,2020.1.3,MacIntel,60,,,,,,,0,media/djnb.png,1,Symb,u,RT,0,0,29,0,1,2,1.8,2,u,1,1.00027,29,0,29,0,1,,,,,
,,,,,,,,,,,,,,,2,2,2020-12-08_10h00.47.225,Context_Learning_Pilot,2020.1.3,MacIntel,60,,,,,,,2,media/dinb.png,1,Symb,h,RT,0,0,30,0,1,2,1.8,2,h,1,2.3136,30,0,30,0,1,,,,,
,,,,,,,,,,,,,,,2,2,2020-12-08_10h00.47.225,Context_Learning_Pilot,2020.1.3,MacIntel,60,,,,,,,3,media/ddnb.png,1,Symb,l,RT,0,0,31,0,1,2,1.8,2,l,1,2.700185,31,0,31,0,1,,,,,
,,,,,,,,,,,,,,,2,2,2020-12-08_10h00.47.225,Context_Learning_Pilot,2020.1.3,MacIntel,60,,,,,,,1,media/dnnb.png,2,Symb,l,RT,0,0,32,0,1,2,1.8,2,l,1,0.70681,32,0,32,0,1,,,,,
,,,,,,,,,,,,,,,2,2,2020-12-08_10h00.47.225,Context_Learning_Pilot,2020.1.3,MacIntel,60,,,,,,,1,media/dnnb.png,1,Symb,i,RT,0,0,33,0,1,2,1.8,2,i,1,0.70904,33,0,33,0,1,,,,,
,,,,,,,,,,,,,,,2,2,2020-12-08_10h00.47.225,Context_Learning_Pilot,2020.1.3,MacIntel,60,,,,,,,2,media/dinb.png,1,Symb,h,RT,0,0,34,0,1,2,1.8,2,h,1,0.660385,34,0,34,0,1,,,,,
,,,,,,,,,,,,,,,2,2,2020-12-08_10h00.47.225,Context_Learning_Pilot,2020.1.3,MacIntel,60,,,,,,,0,media/djnb.png,1,Symb,u,RT,0,0,35,0,1,2,1.8,2,u,1,1.08483,35,0,35,0,1,,,,,
,,,,,,,,,,,,,,,2,2,2020-12-08_10h00.47.225,Context_Learning_Pilot,2020.1.3,MacIntel,60,,,,,,,2,media/dinb.png,1,Symb,h,RT,0,0,36,0,1,2,1.8,2,h,1,1.202095,36,0,36,0,1,,,,,
,,,,,,,,,,,,,,,2,2,2020-12-08_10h00.47.225,Context_Learning_Pilot,2020.1.3,MacIntel,60,,,,,,,2,media/dinb.png,2,Symb,u,RT,0,0,37,0,1,2,1.8,2,u,1,0.975325,37,0,37,0,1,,,,,
,,,,,,,,,,,,,,,2,2,2020-12-08_10h00.47.225,Context_Learning_Pilot,2020.1.3,MacIntel,60,,,,,,,3,media/ddnb.png,2,Symb,i,RT,0,0,38,0,1,2,1.8,2,i,1,1.713685,38,0,38,0,1,,,,,
,,,,,,,,,,,,,,,2,2,2020-12-08_10h00.47.225,Context_Learning_Pilot,2020.1.3,MacIntel,60,,,,,,,3,media/ddnb.png,1,Symb,l,RT,0,0,39,0,1,2,1.8,2,l,1,0.712755,39,0,39,0,1,,,,,
,,,,,,,,,,,,,,,2,2,2020-12-08_10h00.47.225,Context_Learning_Pilot,2020.1.3,MacIntel,60,,,,,,,0,media/djnb.png,1,Symb,u,RT,0,0,40,0,1,2,1.8,2,u,1,0.78707,40,0,40,0,1,,,,,
,,,,,,,,,,,,,,,2,2,2020-12-08_10h00.47.225,Context_Learning_Pilot,2020.1.3,MacIntel,60,,,,,,,0,media/djnb.png,2,Symb,h,RT,0,0,41,0,1,2,1.8,2,h,1,0.89128,41,0,41,0,1,,,,,
,,,,,,,,,,,,,,,2,2,2020-12-08_10h00.47.225,Context_Learning_Pilot,2020.1.3,MacIntel,60,,,,,,,1,media/dnnb.png,2,Symb,l,RT,0,0,42,0,1,2,1.8,2,l,1,0.78923,42,0,42,0,1,,,,,
,,,,,,,,,,,,,,,2,2,2020-12-08_10h00.47.225,Context_Learning_Pilot,2020.1.3,MacIntel,60,,,,,,,3,media/ddnb.png,2,Symb,i,RT,0,0,43,0,1,2,1.8,2,i,1,0.80701,43,0,43,0,1,,,,,
,,,,,,,,,,,,,,,2,2,2020-12-08_10h00.47.225,Context_Learning_Pilot,2020.1.3,MacIntel,60,,,,,,,0,media/djnb.png,2,Symb,h,RT,0,0,44,0,1,2,1.8,2,h,1,1.113295,44,0,44,0,1,,,,,
,,,,,,,,,,,,,,,2,2,2020-12-08_10h00.47.225,Context_Learning_Pilot,2020.1.3,MacIntel,60,,,,,,,1,media/dnnb.png,1,Symb,i,RT,0,0,45,0,1,2,1.8,2,i,1,0.955055,45,0,45,0,1,,,,,
,,,,,,,,,,,,,,,2,2,2020-12-08_10h00.47.225,Context_Learning_Pilot,2020.1.3,MacIntel,60,,,,,,,2,media/dinb.png,2,Symb,u,RT,0,0,46,0,1,2,1.8,2,u,1,0.825755,46,0,46,0,1,,,,,
,,,,,,,,,,,,,,,2,2,2020-12-08_10h00.47.225,Context_Learning_Pilot,2020.1.3,MacIntel,60,,,,,,,3,media/ddnb.png,1,Symb,l,RT,0,0,47,0,1,2,1.8,2,l,1,1.40874,47,0,47,0,1,,,,,
,,,,,,,,,,,,,,,2,2,2020-12-08_10h00.47.225,Context_Learning_Pilot,2020.1.3,MacIntel,60,,,,,,,1,media/dnnb.png,1,Symb,i,RT,0,0,48,0,1,2,1.8,2,i,1,0.757615,48,0,48,0,1,,,,,
,,,,,,,,,,,,,,,2,2,2020-12-08_10h00.47.225,Context_Learning_Pilot,2020.1.3,MacIntel,60,,,,,,,3,media/ddnb.png,2,Symb,i,RT,0,0,49,0,1,2,1.8,2,h,0,1.724235,49,0,49,0,1,,,,,
,,,,,,,,,,,,,,,2,2,2020-12-08_10h00.47.225,Context_Learning_Pilot,2020.1.3,MacIntel,60,,,,,,,0,media/djnb.png,1,Symb,u,RT,0,0,50,0,1,2,1.8,2,u,1,1.41733,50,0,50,0,1,,,,,
,,,,,,,,,,,,,,,2,2,2020-12-08_10h00.47.225,Context_Learning_Pilot,2020.1.3,MacIntel,60,,,,,,,2,media/dinb.png,1,Symb,h,RT,0,0,51,0,1,2,1.8,2,h,1,0.925305,51,0,51,0,1,,,,,
,,,,,,,,,,,,,,,2,2,2020-12-08_10h00.47.225,Context_Learning_Pilot,2020.1.3,MacIntel,60,,,,,,,0,media/djnb.png,2,Symb,h,RT,0,0,52,0,1,2,1.8,2,h,1,1.825275,52,0,52,0,1,,,,,
,,,,,,,,,,,,,,,2,2,2020-12-08_10h00.47.225,Context_Learning_Pilot,2020.1.3,MacIntel,60,,,,,,,2,media/dinb.png,1,Symb,h,RT,0,0,53,0,1,2,1.8,2,h,1,1.37975,53,0,53,0,1,,,,,
,,,,,,,,,,,,,,,2,2,2020-12-08_10h00.47.225,Context_Learning_Pilot,2020.1.3,MacIntel,60,,,,,,,3,media/ddnb.png,1,Symb,l,RT,0,0,54,0,1,2,1.8,2,i,0,1.72741,54,0,54,0,1,,,,,
,,,,,,,,,,,,,,,2,2,2020-12-08_10h00.47.225,Context_Learning_Pilot,2020.1.3,MacIntel,60,,,,,,,3,media/ddnb.png,1,Symb,l,RT,0,0,55,0,1,2,1.8,2,l,1,0.584255,55,0,55,0,1,,,,,
,,,,,,,,,,,,,,,2,2,2020-12-08_10h00.47.225,Context_Learning_Pilot,2020.1.3,MacIntel,60,,,,,,,3,media/ddnb.png,2,Symb,i,RT,0,0,56,0,1,2,1.8,2,i,1,0.73045,56,0,56,0,1,,,,,
,,,,,,,,,,,,,,,2,2,2020-12-08_10h00.47.225,Context_Learning_Pilot,2020.1.3,MacIntel,60,,,,,,,1,media/dnnb.png,1,Symb,i,RT,0,0,57,0,1,2,1.8,2,i,1,0.96022,57,0,57,0,1,,,,,
,,,,,,,,,,,,,,,2,2,2020-12-08_10h00.47.225,Context_Learning_Pilot,2020.1.3,MacIntel,60,,,,,,,2,media/dinb.png,2,Symb,u,RT,0,0,58,0,1,2,1.8,2,u,1,1.01782,58,0,58,0,1,,,,,
,,,,,,,,,,,,,,,2,2,2020-12-08_10h00.47.225,Context_Learning_Pilot,2020.1.3,MacIntel,60,,,,,,,0,media/djnb.png,1,Symb,u,RT,0,0,59,0,1,2,1.8,2,u,1,0.905795,59,0,59,0,1,,,,,
,,,,,,,,,,,,,,,2,2,2020-12-08_10h00.47.225,Context_Learning_Pilot,2020.1.3,MacIntel,60,,,,,,,1,media/dnnb.png,2,Symb,l,RT,0,0,60,0,1,2,1.8,2,l,1,0.833625,60,0,60,0,1,,,,,
,,,,,,,,,,,,,,,2,2,2020-12-08_10h00.47.225,Context_Learning_Pilot,2020.1.3,MacIntel,60,,,,,,,1,media/dnnb.png,2,Symb,l,RT,0,0,61,0,1,2,1.8,2,l,1,0.595655,61,0,61,0,1,,,,,
,,,,,,,,,,,,,,,2,2,2020-12-08_10h00.47.225,Context_Learning_Pilot,2020.1.3,MacIntel,60,,,,,,,2,media/dinb.png,2,Symb,u,RT,0,0,62,0,1,2,1.8,2,u,1,0.822725,62,0,62,0,1,,,,,
,,,,,,,,,,,,,,,2,2,2020-12-08_10h00.47.225,Context_Learning_Pilot,2020.1.3,MacIntel,60,,,,,,,0,media/djnb.png,2,Symb,h,RT,0,0,63,0,1,2,1.8,2,h,1,0.622395,63,0,63,0,1,,,,,
,,,,,,,,,,,,,,,2,2,2020-12-08_10h00.47.225,Context_Learning_Pilot,2020.1.3,MacIntel,60,,,,,,,0,media/djnb.png,2,Symb,h,RT,0,0,64,0,1,2,1.8,2,h,1,0.992645,64,0,64,0,1,,,,,
,,,,,,,,,,,,,,,2,2,2020-12-08_10h00.47.225,Context_Learning_Pilot,2020.1.3,MacIntel,60,,,,,,,1,media/dnnb.png,1,Symb,i,RT,0,0,65,0,1,2,1.8,2,l,0,1.317185,65,0,65,0,1,,,,,
,,,,,,,,,,,,,,,2,2,2020-12-08_10h00.47.225,Context_Learning_Pilot,2020.1.3,MacIntel,60,,,,,,,1,media/dnnb.png,2,Symb,l,RT,0,0,66,0,1,2,1.8,2,l,1,0.671845,66,0,66,0,1,,,,,
,,,,,,,,,,,,,,,2,2,2020-12-08_10h00.47.225,Context_Learning_Pilot,2020.1.3,MacIntel,60,,,,,,,3,media/ddnb.png,1,Symb,l,RT,0,0,67,0,1,2,1.8,2,l,1,0.92707,67,0,67,0,1,,,,,
,,,,,,,,,,,,,,,2,2,2020-12-08_10h00.47.225,Context_Learning_Pilot,2020.1.3,MacIntel,60,,,,,,,2,media/dinb.png,2,Symb,u,RT,0,0,68,0,1,2,1.8,2,u,1,1.12203,68,0,68,0,1,,,,,
,,,,,,,,,,,,,,,2,2,2020-12-08_10h00.47.225,Context_Learning_Pilot,2020.1.3,MacIntel,60,,,,,,,1,media/dnnb.png,2,Symb,l,RT,0,0,69,0,1,2,1.8,2,l,1,0.935585,69,0,69,0,1,,,,,
,,,,,,,,,,,,,,,2,2,2020-12-08_10h00.47.225,Context_Learning_Pilot,2020.1.3,MacIntel,60,,,,,,,0,media/djnb.png,1,Symb,u,RT,0,0,70,0,1,2,1.8,2,u,1,0.90102,70,0,70,0,1,,,,,
,,,,,,,,,,,,,,,2,2,2020-12-08_10h00.47.225,Context_Learning_Pilot,2020.1.3,MacIntel,60,,,,,,,2,media/dinb.png,1,Symb,h,RT,0,0,71,0,1,2,1.8,2,h,1,0.71163,71,0,71,0,1,,,,,
,,,,,,,,,,,,,,,2,2,2020-12-08_10h00.47.225,Context_Learning_Pilot,2020.1.3,MacIntel,60,,,,,,,2,media/dinb.png,2,Symb,u,RT,0,0,72,0,1,2,1.8,2,u,1,0.811135,72,0,72,0,1,,,,,
,,,,,,,,,,,,,,,2,2,2020-12-08_10h00.47.225,Context_Learning_Pilot,2020.1.3,MacIntel,60,,,,,,,1,media/dnnb.png,1,Symb,i,RT,0,0,73,0,1,2,1.8,2,i,1,1.117145,73,0,73,0,1,,,,,
,,,,,,,,,,,,,,,2,2,2020-12-08_10h00.47.225,Context_Learning_Pilot,2020.1.3,MacIntel,60,,,,,,,2,media/dinb.png,1,Symb,h,RT,0,0,74,0,1,2,1.8,2,h,1,0.881205,74,0,74,0,1,,,,,
,,,,,,,,,,,,,,,2,2,2020-12-08_10h00.47.225,Context_Learning_Pilot,2020.1.3,MacIntel,60,,,,,,,0,media/djnb.png,1,Symb,u,RT,0,0,75,0,1,2,1.8,2,u,1,1.003325,75,0,75,0,1,,,,,
,,,,,,,,,,,,,,,2,2,2020-12-08_10h00.47.225,Context_Learning_Pilot,2020.1.3,MacIntel,60,,,,,,,3,media/ddnb.png,2,Symb,i,RT,0,0,76,0,1,2,1.8,2,i,1,0.962665,76,0,76,0,1,,,,,
,,,,,,,,,,,,,,,2,2,2020-12-08_10h00.47.225,Context_Learning_Pilot,2020.1.3,MacIntel,60,,,,,,,3,media/ddnb.png,1,Symb,l,RT,0,0,77,0,1,2,1.8,2,l,1,0.739825,77,0,77,0,1,,,,,
,,,,,,,,,,,,,,,2,2,2020-12-08_10h00.47.225,Context_Learning_Pilot,2020.1.3,MacIntel,60,,,,,,,3,media/ddnb.png,2,Symb,i,RT,0,0,78,0,1,2,1.8,2,i,1,0.8719,78,0,78,0,1,,,,,
,,,,,,,,,,,,,,,2,2,2020-12-08_10h00.47.225,Context_Learning_Pilot,2020.1.3,MacIntel,60,,,,,,,0,media/djnb.png,2,Symb,h,RT,0,0,79,0,1,2,1.8,2,h,1,0.67786,79,0,79,0,1,,,,,
,,,,,,,,,,,,,,,2,2,2020-12-08_10h00.47.225,Context_Learning_Pilot,2020.1.3,MacIntel,60,,,,,,,2,media/dinb.png,1,Symb,h,RT,0,0,80,0,1,2,1.8,2,u,0,1.14308,80,0,80,0,1,,,,,
,,,,,,,,,,,,,,,2,2,2020-12-08_10h00.47.225,Context_Learning_Pilot,2020.1.3,MacIntel,60,,,,,,,1,media/dnnb.png,1,Symb,i,RT,0,0,81,0,1,2,1.8,2,i,1,1.03359,81,0,81,0,1,,,,,
,,,,,,,,,,,,,,,2,2,2020-12-08_10h00.47.225,Context_Learning_Pilot,2020.1.3,MacIntel,60,,,,,,,1,media/dnnb.png,2,Symb,l,RT,0,0,82,0,1,2,1.8,2,l,1,0.55022,82,0,82,0,1,,,,,
,,,,,,,,,,,,,,,2,2,2020-12-08_10h00.47.225,Context_Learning_Pilot,2020.1.3,MacIntel,60,,,,,,,1,media/dnnb.png,1,Symb,i,RT,0,0,83,0,1,2,1.8,2,i,1,0.635425,83,0,83,0,1,,,,,
,,,,,,,,,,,,,,,2,2,2020-12-08_10h00.47.225,Context_Learning_Pilot,2020.1.3,MacIntel,60,,,,,,,3,media/ddnb.png,1,Symb,l,RT,0,0,84,0,1,2,1.8,2,l,1,0.77448,84,0,84,0,1,,,,,
,,,,,,,,,,,,,,,2,2,2020-12-08_10h00.47.225,Context_Learning_Pilot,2020.1.3,MacIntel,60,,,,,,,3,media/ddnb.png,2,Symb,i,RT,0,0,85,0,1,2,1.8,2,i,1,0.68483,85,0,85,0,1,,,,,
,,,,,,,,,,,,,,,2,2,2020-12-08_10h00.47.225,Context_Learning_Pilot,2020.1.3,MacIntel,60,,,,,,,0,media/djnb.png,1,Symb,u,RT,0,0,86,0,1,2,1.8,2,u,1,0.75655,86,0,86,0,1,,,,,
,,,,,,,,,,,,,,,2,2,2020-12-08_10h00.47.225,Context_Learning_Pilot,2020.1.3,MacIntel,60,,,,,,,0,media/djnb.png,2,Symb,h,RT,0,0,87,0,1,2,1.8,2,h,1,0.617025,87,0,87,0,1,,,,,
,,,,,,,,,,,,,,,2,2,2020-12-08_10h00.47.225,Context_Learning_Pilot,2020.1.3,MacIntel,60,,,,,,,2,media/dinb.png,2,Symb,u,RT,0,0,88,0,1,2,1.8,2,u,1,0.932395,88,0,88,0,1,,,,,
,,,,,,,,,,,,,,,2,2,2020-12-08_10h00.47.225,Context_Learning_Pilot,2020.1.3,MacIntel,60,,,,,,,0,media/djnb.png,2,Symb,h,RT,0,0,89,0,1,2,1.8,2,h,1,0.636165,89,0,89,0,1,,,,,
,,,,,,,,,,,,,,,2,2,2020-12-08_10h00.47.225,Context_Learning_Pilot,2020.1.3,MacIntel,60,,,,,,,2,media/dinb.png,2,Symb,u,RT,0,0,90,0,1,2,1.8,2,u,1,1.072625,90,0,90,0,1,,,,,
,,,,,,,,,,,,,,,2,2,2020-12-08_10h00.47.225,Context_Learning_Pilot,2020.1.3,MacIntel,60,,,,,,,3,media/ddnb.png,2,Symb,i,RT,0,0,91,0,1,2,1.8,2,i,1,1.097815,91,0,91,0,1,,,,,
,,,,,,,,,,,,,,,2,2,2020-12-08_10h00.47.225,Context_Learning_Pilot,2020.1.3,MacIntel,60,,,,,,,3,media/ddnb.png,1,Symb,l,RT,0,0,92,0,1,2,1.8,2,l,1,0.6516,92,0,92,0,1,,,,,
,,,,,,,,,,,,,,,2,2,2020-12-08_10h00.47.225,Context_Learning_Pilot,2020.1.3,MacIntel,60,,,,,,,0,media/djnb.png,1,Symb,u,RT,0,0,93,0,1,2,1.8,2,h,0,0.697455,93,0,93,0,1,,,,,
,,,,,,,,,,,,,,,2,2,2020-12-08_10h00.47.225,Context_Learning_Pilot,2020.1.3,MacIntel,60,,,,,,,2,media/dinb.png,1,Symb,h,RT,0,0,94,0,1,2,1.8,2,h,1,2.144685,94,0,94,0,1,,,,,
,,,,,,,,,,,,,,,2,2,2020-12-08_10h00.47.225,Context_Learning_Pilot,2020.1.3,MacIntel,60,,,,,,,1,media/dnnb.png,2,Symb,l,RT,0,0,95,0,1,2,1.8,2,l,1,1.129215,95,0,95,0,1,,,,,
,,,,,,,,,,,,,,,2,2,2020-12-08_10h00.47.225,Context_Learning_Pilot,2020.1.3,MacIntel,60,,,,,,,,,,,,,,,,,,,,,,,,,,,,,1,0,1,0,1
,,,,,,,,,,,,,,,2,2,2020-12-08_10h00.47.225,Context_Learning_Pilot,2020.1.3,MacIntel,60,,,,,h,2.237235,2,media/dinb.png,1,Symb,h,RT,0,0,0,0,1,3,1.8,2,h,1,0.987195,0,0,0,0,1,,,,,
,,,,,,,,,,,,,,,2,2,2020-12-08_10h00.47.225,Context_Learning_Pilot,2020.1.3,MacIntel,60,,,,,,,2,media/dinb.png,2,Symb,u,RT,0,0,1,0,1,3,1.8,2,u,1,0.687345,1,0,1,0,1,,,,,
,,,,,,,,,,,,,,,2,2,2020-12-08_10h00.47.225,Context_Learning_Pilot,2020.1.3,MacIntel,60,,,,,,,0,media/djnb.png,1,Symb,u,RT,0,0,2,0,1,3,1.8,2,u,1,1.134175,2,0,2,0,1,,,,,
,,,,,,,,,,,,,,,2,2,2020-12-08_10h00.47.225,Context_Learning_Pilot,2020.1.3,MacIntel,60,,,,,,,0,media/djnb.png,2,Symb,h,RT,0,0,3,0,1,3,1.8,2,h,1,0.606475,3,0,3,0,1,,,,,
,,,,,,,,,,,,,,,2,2,2020-12-08_10h00.47.225,Context_Learning_Pilot,2020.1.3,MacIntel,60,,,,,,,1,media/dnnb.png,2,Symb,l,RT,0,0,4,0,1,3,1.8,2,l,1,0.926505,4,0,4,0,1,,,,,
,,,,,,,,,,,,,,,2,2,2020-12-08_10h00.47.225,Context_Learning_Pilot,2020.1.3,MacIntel,60,,,,,,,3,media/ddnb.png,1,Symb,l,RT,0,0,5,0,1,3,1.8,2,l,1,0.698515,5,0,5,0,1,,,,,
,,,,,,,,,,,,,,,2,2,2020-12-08_10h00.47.225,Context_Learning_Pilot,2020.1.3,MacIntel,60,,,,,,,0,media/djnb.png,1,Symb,u,RT,0,0,6,0,1,3,1.8,2,u,1,0.88808,6,0,6,0,1,,,,,
,,,,,,,,,,,,,,,2,2,2020-12-08_10h00.47.225,Context_Learning_Pilot,2020.1.3,MacIntel,60,,,,,,,3,media/ddnb.png,2,Symb,i,RT,0,0,7,0,1,3,1.8,2,i,1,0.833305,7,0,7,0,1,,,,,
,,,,,,,,,,,,,,,2,2,2020-12-08_10h00.47.225,Context_Learning_Pilot,2020.1.3,MacIntel,60,,,,,,,0,media/djnb.png,2,Symb,h,RT,0,0,8,0,1,3,1.8,2,h,1,0.771715,8,0,8,0,1,,,,,
,,,,,,,,,,,,,,,2,2,2020-12-08_10h00.47.225,Context_Learning_Pilot,2020.1.3,MacIntel,60,,,,,,,2,media/dinb.png,1,Symb,h,RT,0,0,9,0,1,3,1.8,2,h,1,0.97447,9,0,9,0,1,,,,,
,,,,,,,,,,,,,,,2,2,2020-12-08_10h00.47.225,Context_Learning_Pilot,2020.1.3,MacIntel,60,,,,,,,2,media/dinb.png,2,Symb,u,RT,0,0,10,0,1,3,1.8,2,h,0,0.90996,10,0,10,0,1,,,,,
,,,,,,,,,,,,,,,2,2,2020-12-08_10h00.47.225,Context_Learning_Pilot,2020.1.3,MacIntel,60,,,,,,,1,media/dnnb.png,1,Symb,i,RT,0,0,11,0,1,3,1.8,2,i,1,1.69709,11,0,11,0,1,,,,,
,,,,,,,,,,,,,,,2,2,2020-12-08_10h00.47.225,Context_Learning_Pilot,2020.1.3,MacIntel,60,,,,,,,3,media/ddnb.png,1,Symb,l,RT,0,0,12,0,1,3,1.8,2,l,1,3.827815,12,0,12,0,1,,,,,
,,,,,,,,,,,,,,,2,2,2020-12-08_10h00.47.225,Context_Learning_Pilot,2020.1.3,MacIntel,60,,,,,,,1,media/dnnb.png,1,Symb,i,RT,0,0,13,0,1,3,1.8,2,i,1,0.88836,13,0,13,0,1,,,,,
,,,,,,,,,,,,,,,2,2,2020-12-08_10h00.47.225,Context_Learning_Pilot,2020.1.3,MacIntel,60,,,,,,,1,media/dnnb.png,2,Symb,l,RT,0,0,14,0,1,3,1.8,2,l,1,1.235485,14,0,14,0,1,,,,,
,,,,,,,,,,,,,,,2,2,2020-12-08_10h00.47.225,Context_Learning_Pilot,2020.1.3,MacIntel,60,,,,,,,3,media/ddnb.png,2,Symb,i,RT,0,0,15,0,1,3,1.8,2,i,1,0.819715,15,0,15,0,1,,,,,
,,,,,,,,,,,,,,,2,2,2020-12-08_10h00.47.225,Context_Learning_Pilot,2020.1.3,MacIntel,60,,,,,,,2,media/dinb.png,2,Symb,u,RT,0,0,16,0,1,3,1.8,2,u,1,1.137795,16,0,16,0,1,,,,,
,,,,,,,,,,,,,,,2,2,2020-12-08_10h00.47.225,Context_Learning_Pilot,2020.1.3,MacIntel,60,,,,,,,0,media/djnb.png,2,Symb,h,RT,0,0,17,0,1,3,1.8,2,h,1,1.093245,17,0,17,0,1,,,,,
,,,,,,,,,,,,,,,2,2,2020-12-08_10h00.47.225,Context_Learning_Pilot,2020.1.3,MacIntel,60,,,,,,,3,media/ddnb.png,1,Symb,l,RT,0,0,18,0,1,3,1.8,2,l,1,1.60392,18,0,18,0,1,,,,,
,,,,,,,,,,,,,,,2,2,2020-12-08_10h00.47.225,Context_Learning_Pilot,2020.1.3,MacIntel,60,,,,,,,3,media/ddnb.png,2,Symb,i,RT,0,0,19,0,1,3,1.8,2,u,0,2.18941,19,0,19,0,1,,,,,
,,,,,,,,,,,,,,,2,2,2020-12-08_10h00.47.225,Context_Learning_Pilot,2020.1.3,MacIntel,60,,,,,,,1,media/dnnb.png,2,Symb,l,RT,0,0,20,0,1,3,1.8,2,l,1,1.282165,20,0,20,0,1,,,,,
,,,,,,,,,,,,,,,2,2,2020-12-08_10h00.47.225,Context_Learning_Pilot,2020.1.3,MacIntel,60,,,,,,,3,media/ddnb.png,2,Symb,i,RT,0,0,21,0,1,3,1.8,2,i,1,0.58806,21,0,21,0,1,,,,,
,,,,,,,,,,,,,,,2,2,2020-12-08_10h00.47.225,Context_Learning_Pilot,2020.1.3,MacIntel,60,,,,,,,2,media/dinb.png,1,Symb,h,RT,0,0,22,0,1,3,1.8,2,h,1,1.012725,22,0,22,0,1,,,,,
,,,,,,,,,,,,,,,2,2,2020-12-08_10h00.47.225,Context_Learning_Pilot,2020.1.3,MacIntel,60,,,,,,,0,media/djnb.png,2,Symb,h,RT,0,0,23,0,1,3,1.8,2,h,1,0.938655,23,0,23,0,1,,,,,
,,,,,,,,,,,,,,,2,2,2020-12-08_10h00.47.225,Context_Learning_Pilot,2020.1.3,MacIntel,60,,,,,,,2,media/dinb.png,2,Symb,u,RT,0,0,24,0,1,3,1.8,2,u,1,1.09554,24,0,24,0,1,,,,,
,,,,,,,,,,,,,,,2,2,2020-12-08_10h00.47.225,Context_Learning_Pilot,2020.1.3,MacIntel,60,,,,,,,1,media/dnnb.png,1,Symb,i,RT,0,0,25,0,1,3,1.8,2,i,1,1.587485,25,0,25,0,1,,,,,
,,,,,,,,,,,,,,,2,2,2020-12-08_10h00.47.225,Context_Learning_Pilot,2020.1.3,MacIntel,60,,,,,,,0,media/djnb.png,1,Symb,u,RT,0,0,26,0,1,3,1.8,2,u,1,0.8691,26,0,26,0,1,,,,,
,,,,,,,,,,,,,,,2,2,2020-12-08_10h00.47.225,Context_Learning_Pilot,2020.1.3,MacIntel,60,,,,,,,0,media/djnb.png,1,Symb,u,RT,0,0,27,0,1,3,1.8,2,u,1,0.695245,27,0,27,0,1,,,,,
,,,,,,,,,,,,,,,2,2,2020-12-08_10h00.47.225,Context_Learning_Pilot,2020.1.3,MacIntel,60,,,,,,,1,media/dnnb.png,1,Symb,i,RT,0,0,28,0,1,3,1.8,2,i,1,1.381905,28,0,28,0,1,,,,,
,,,,,,,,,,,,,,,2,2,2020-12-08_10h00.47.225,Context_Learning_Pilot,2020.1.3,MacIntel,60,,,,,,,1,media/dnnb.png,2,Symb,l,RT,0,0,29,0,1,3,1.8,2,l,1,0.746875,29,0,29,0,1,,,,,
,,,,,,,,,,,,,,,2,2,2020-12-08_10h00.47.225,Context_Learning_Pilot,2020.1.3,MacIntel,60,,,,,,,2,media/dinb.png,1,Symb,h,RT,0,0,30,0,1,3,1.8,2,h,1,0.717845,30,0,30,0,1,,,,,
,,,,,,,,,,,,,,,2,2,2020-12-08_10h00.47.225,Context_Learning_Pilot,2020.1.3,MacIntel,60,,,,,,,3,media/ddnb.png,1,Symb,l,RT,0,0,31,0,1,3,1.8,2,l,1,1.24183,31,0,31,0,1,,,,,
,,,,,,,,,,,,,,,2,2,2020-12-08_10h00.47.225,Context_Learning_Pilot,2020.1.3,MacIntel,60,,,,,,,1,media/dnnb.png,1,Symb,i,RT,0,0,32,0,1,3,1.8,2,i,1,0.851895,32,0,32,0,1,,,,,
,,,,,,,,,,,,,,,2,2,2020-12-08_10h00.47.225,Context_Learning_Pilot,2020.1.3,MacIntel,60,,,,,,,3,media/ddnb.png,1,Symb,l,RT,0,0,33,0,1,3,1.8,2,l,1,0.728325,33,0,33,0,1,,,,,
,,,,,,,,,,,,,,,2,2,2020-12-08_10h00.47.225,Context_Learning_Pilot,2020.1.3,MacIntel,60,,,,,,,2,media/dinb.png,2,Symb,u,RT,0,0,34,0,1,3,1.8,2,u,1,0.872755,34,0,34,0,1,,,,,
,,,,,,,,,,,,,,,2,2,2020-12-08_10h00.47.225,Context_Learning_Pilot,2020.1.3,MacIntel,60,,,,,,,1,media/dnnb.png,2,Symb,l,RT,0,0,35,0,1,3,1.8,2,i,0,0.88782,35,0,35,0,1,,,,,
,,,,,,,,,,,,,,,2,2,2020-12-08_10h00.47.225,Context_Learning_Pilot,2020.1.3,MacIntel,60,,,,,,,1,media/dnnb.png,1,Symb,i,RT,0,0,36,0,1,3,1.8,2,i,1,1.048585,36,0,36,0,1,,,,,
,,,,,,,,,,,,,,,2,2,2020-12-08_10h00.47.225,Context_Learning_Pilot,2020.1.3,MacIntel,60,,,,,,,3,media/ddnb.png,2,Symb,i,RT,0,0,37,0,1,3,1.8,2,i,1,1.01277,37,0,37,0,1,,,,,
,,,,,,,,,,,,,,,2,2,2020-12-08_10h00.47.225,Context_Learning_Pilot,2020.1.3,MacIntel,60,,,,,,,1,media/dnnb.png,2,Symb,l,RT,0,0,38,0,1,3,1.8,2,l,1,0.805885,38,0,38,0,1,,,,,
,,,,,,,,,,,,,,,2,2,2020-12-08_10h00.47.225,Context_Learning_Pilot,2020.1.3,MacIntel,60,,,,,,,0,media/djnb.png,1,Symb,u,RT,0,0,39,0,1,3,1.8,2,u,1,1.331965,39,0,39,0,1,,,,,
,,,,,,,,,,,,,,,2,2,2020-12-08_10h00.47.225,Context_Learning_Pilot,2020.1.3,MacIntel,60,,,,,,,2,media/dinb.png,1,Symb,h,RT,0,0,40,0,1,3,1.8,2,h,1,0.684,40,0,40,0,1,,,,,
,,,,,,,,,,,,,,,2,2,2020-12-08_10h00.47.225,Context_Learning_Pilot,2020.1.3,MacIntel,60,,,,,,,0,media/djnb.png,2,Symb,h,RT,0,0,41,0,1,3,1.8,2,h,1,0.757985,41,0,41,0,1,,,,,
,,,,,,,,,,,,,,,2,2,2020-12-08_10h00.47.225,Context_Learning_Pilot,2020.1.3,MacIntel,60,,,,,,,0,media/djnb.png,1,Symb,u,RT,0,0,42,0,1,3,1.8,2,u,1,1.238715,42,0,42,0,1,,,,,
,,,,,,,,,,,,,,,2,2,2020-12-08_10h00.47.225,Context_Learning_Pilot,2020.1.3,MacIntel,60,,,,,,,3,media/ddnb.png,2,Symb,i,RT,0,0,43,0,1,3,1.8,2,i,1,1.152265,43,0,43,0,1,,,,,
,,,,,,,,,,,,,,,2,2,2020-12-08_10h00.47.225,Context_Learning_Pilot,2020.1.3,MacIntel,60,,,,,,,2,media/dinb.png,2,Symb,u,RT,0,0,44,0,1,3,1.8,2,u,1,1.166,44,0,44,0,1,,,,,
,,,,,,,,,,,,,,,2,2,2020-12-08_10h00.47.225,Context_Learning_Pilot,2020.1.3,MacIntel,60,,,,,,,2,media/dinb.png,1,Symb,h,RT,0,0,45,0,1,3,1.8,2,h,1,0.692785,45,0,45,0,1,,,,,
,,,,,,,,,,,,,,,2,2,2020-12-08_10h00.47.225,Context_Learning_Pilot,2020.1.3,MacIntel,60,,,,,,,0,media/djnb.png,2,Symb,h,RT,0,0,46,0,1,3,1.8,2,h,1,1.200515,46,0,46,0,1,,,,,
,,,,,,,,,,,,,,,2,2,2020-12-08_10h00.47.225,Context_Learning_Pilot,2020.1.3,MacIntel,60,,,,,,,3,media/ddnb.png,1,Symb,l,RT,0,0,47,0,1,3,1.8,2,l,1,1.47647,47,0,47,0,1,,,,,
,,,,,,,,,,,,,,,2,2,2020-12-08_10h00.47.225,Context_Learning_Pilot,2020.1.3,MacIntel,60,,,,,,,1,media/dnnb.png,2,Symb,l,RT,0,0,48,0,1,3,1.8,2,l,1,0.93362,48,0,48,0,1,,,,,
,,,,,,,,,,,,,,,2,2,2020-12-08_10h00.47.225,Context_Learning_Pilot,2020.1.3,MacIntel,60,,,,,,,0,media/djnb.png,2,Symb,h,RT,0,0,49,0,1,3,1.8,2,h,1,0.778175,49,0,49,0,1,,,,,
,,,,,,,,,,,,,,,2,2,2020-12-08_10h00.47.225,Context_Learning_Pilot,2020.1.3,MacIntel,60,,,,,,,2,media/dinb.png,2,Symb,u,RT,0,0,50,0,1,3,1.8,2,u,1,3.063015,50,0,50,0,1,,,,,
,,,,,,,,,,,,,,,2,2,2020-12-08_10h00.47.225,Context_Learning_Pilot,2020.1.3,MacIntel,60,,,,,,,3,media/ddnb.png,2,Symb,i,RT,0,0,51,0,1,3,1.8,2,i,1,1.29573,51,0,51,0,1,,,,,
,,,,,,,,,,,,,,,2,2,2020-12-08_10h00.47.225,Context_Learning_Pilot,2020.1.3,MacIntel,60,,,,,,,1,media/dnnb.png,2,Symb,l,RT,0,0,52,0,1,3,1.8,2,l,1,0.7788,52,0,52,0,1,,,,,
,,,,,,,,,,,,,,,2,2,2020-12-08_10h00.47.225,Context_Learning_Pilot,2020.1.3,MacIntel,60,,,,,,,2,media/dinb.png,1,Symb,h,RT,0,0,53,0,1,3,1.8,2,h,1,2.282725,53,0,53,0,1,,,,,
,,,,,,,,,,,,,,,2,2,2020-12-08_10h00.47.225,Context_Learning_Pilot,2020.1.3,MacIntel,60,,,,,,,2,media/dinb.png,2,Symb,u,RT,0,0,54,0,1,3,1.8,2,u,1,0.76449,54,0,54,0,1,,,,,
,,,,,,,,,,,,,,,2,2,2020-12-08_10h00.47.225,Context_Learning_Pilot,2020.1.3,MacIntel,60,,,,,,,2,media/dinb.png,1,Symb,h,RT,0,0,55,0,1,3,1.8,2,h,1,0.70063,55,0,55,0,1,,,,,
,,,,,,,,,,,,,,,2,2,2020-12-08_10h00.47.225,Context_Learning_Pilot,2020.1.3,MacIntel,60,,,,,,,1,media/dnnb.png,1,Symb,i,RT,0,0,56,0,1,3,1.8,2,i,1,1.197555,56,0,56,0,1,,,,,
,,,,,,,,,,,,,,,2,2,2020-12-08_10h00.47.225,Context_Learning_Pilot,2020.1.3,MacIntel,60,,,,,,,0,media/djnb.png,1,Symb,u,RT,0,0,57,0,1,3,1.8,2,u,1,0.79778,57,0,57,0,1,,,,,
,,,,,,,,,,,,,,,2,2,2020-12-08_10h00.47.225,Context_Learning_Pilot,2020.1.3,MacIntel,60,,,,,,,3,media/ddnb.png,1,Symb,l,RT,0,0,58,0,1,3,1.8,2,l,1,0.668545,58,0,58,0,1,,,,,
,,,,,,,,,,,,,,,2,2,2020-12-08_10h00.47.225,Context_Learning_Pilot,2020.1.3,MacIntel,60,,,,,,,3,media/ddnb.png,2,Symb,i,RT,0,0,59,0,1,3,1.8,2,i,1,1.05937,59,0,59,0,1,,,,,
,,,,,,,,,,,,,,,2,2,2020-12-08_10h00.47.225,Context_Learning_Pilot,2020.1.3,MacIntel,60,,,,,,,1,media/dnnb.png,1,Symb,i,RT,0,0,60,0,1,3,1.8,2,i,1,1.21101,60,0,60,0,1,,,,,
,,,,,,,,,,,,,,,2,2,2020-12-08_10h00.47.225,Context_Learning_Pilot,2020.1.3,MacIntel,60,,,,,,,0,media/djnb.png,2,Symb,h,RT,0,0,61,0,1,3,1.8,2,h,1,1.336045,61,0,61,0,1,,,,,
,,,,,,,,,,,,,,,2,2,2020-12-08_10h00.47.225,Context_Learning_Pilot,2020.1.3,MacIntel,60,,,,,,,3,media/ddnb.png,1,Symb,l,RT,0,0,62,0,1,3,1.8,2,l,1,1.246285,62,0,62,0,1,,,,,
,,,,,,,,,,,,,,,2,2,2020-12-08_10h00.47.225,Context_Learning_Pilot,2020.1.3,MacIntel,60,,,,,,,0,media/djnb.png,1,Symb,u,RT,0,0,63,0,1,3,1.8,2,u,1,0.85153,63,0,63,0,1,,,,,
,,,,,,,,,,,,,,,2,2,2020-12-08_10h00.47.225,Context_Learning_Pilot,2020.1.3,MacIntel,60,,,,,,,0,media/djnb.png,2,Symb,h,RT,0,0,64,0,1,3,1.8,2,h,1,0.64918,64,0,64,0,1,,,,,
,,,,,,,,,,,,,,,2,2,2020-12-08_10h00.47.225,Context_Learning_Pilot,2020.1.3,MacIntel,60,,,,,,,3,media/ddnb.png,1,Symb,l,RT,0,0,65,0,1,3,1.8,2,l,1,1.15379,65,0,65,0,1,,,,,
,,,,,,,,,,,,,,,2,2,2020-12-08_10h00.47.225,Context_Learning_Pilot,2020.1.3,MacIntel,60,,,,,,,0,media/djnb.png,2,Symb,h,RT,0,0,66,0,1,3,1.8,2,h,1,0.66153,66,0,66,0,1,,,,,
,,,,,,,,,,,,,,,2,2,2020-12-08_10h00.47.225,Context_Learning_Pilot,2020.1.3,MacIntel,60,,,,,,,0,media/djnb.png,1,Symb,u,RT,0,0,67,0,1,3,1.8,2,u,1,0.80388,67,0,67,0,1,,,,,
,,,,,,,,,,,,,,,2,2,2020-12-08_10h00.47.225,Context_Learning_Pilot,2020.1.3,MacIntel,60,,,,,,,3,media/ddnb.png,2,Symb,i,RT,0,0,68,0,1,3,1.8,2,i,1,1.16692,68,0,68,0,1,,,,,
,,,,,,,,,,,,,,,2,2,2020-12-08_10h00.47.225,Context_Learning_Pilot,2020.1.3,MacIntel,60,,,,,,,3,media/ddnb.png,1,Symb,l,RT,0,0,69,0,1,3,1.8,2,l,1,0.677045,69,0,69,0,1,,,,,
,,,,,,,,,,,,,,,2,2,2020-12-08_10h00.47.225,Context_Learning_Pilot,2020.1.3,MacIntel,60,,,,,,,1,media/dnnb.png,2,Symb,l,RT,0,0,70,0,1,3,1.8,2,l,1,0.64704,70,0,70,0,1,,,,,
,,,,,,,,,,,,,,,2,2,2020-12-08_10h00.47.225,Context_Learning_Pilot,2020.1.3,MacIntel,60,,,,,,,2,media/dinb.png,1,Symb,h,RT,0,0,71,0,1,3,1.8,2,u,0,0.97092,71,0,71,0,1,,,,,
,,,,,,,,,,,,,,,2,2,2020-12-08_10h00.47.225,Context_Learning_Pilot,2020.1.3,MacIntel,60,,,,,,,1,media/dnnb.png,2,Symb,l,RT,0,0,72,0,1,3,1.8,2,l,1,0.63076,72,0,72,0,1,,,,,
,,,,,,,,,,,,,,,2,2,2020-12-08_10h00.47.225,Context_Learning_Pilot,2020.1.3,MacIntel,60,,,,,,,2,media/dinb.png,2,Symb,u,RT,0,0,73,0,1,3,1.8,2,u,1,1.073405,73,0,73,0,1,,,,,
,,,,,,,,,,,,,,,2,2,2020-12-08_10h00.47.225,Context_Learning_Pilot,2020.1.3,MacIntel,60,,,,,,,3,media/ddnb.png,2,Symb,i,RT,0,0,74,0,1,3,1.8,2,i,1,2.144855,74,0,74,0,1,,,,,
,,,,,,,,,,,,,,,2,2,2020-12-08_10h00.47.225,Context_Learning_Pilot,2020.1.3,MacIntel,60,,,,,,,2,media/dinb.png,2,Symb,u,RT,0,0,75,0,1,3,1.8,2,h,0,0.685925,75,0,75,0,1,,,,,
,,,,,,,,,,,,,,,2,2,2020-12-08_10h00.47.225,Context_Learning_Pilot,2020.1.3,MacIntel,60,,,,,,,0,media/djnb.png,1,Symb,u,RT,0,0,76,0,1,3,1.8,2,h,0,0.716265,76,0,76,0,1,,,,,
,,,,,,,,,,,,,,,2,2,2020-12-08_10h00.47.225,Context_Learning_Pilot,2020.1.3,MacIntel,60,,,,,,,1,media/dnnb.png,1,Symb,i,RT,0,0,77,0,1,3,1.8,2,i,1,1.300305,77,0,77,0,1,,,,,
,,,,,,,,,,,,,,,2,2,2020-12-08_10h00.47.225,Context_Learning_Pilot,2020.1.3,MacIntel,60,,,,,,,1,media/dnnb.png,1,Symb,i,RT,0,0,78,0,1,3,1.8,2,i,1,0.87377,78,0,78,0,1,,,,,
,,,,,,,,,,,,,,,2,2,2020-12-08_10h00.47.225,Context_Learning_Pilot,2020.1.3,MacIntel,60,,,,,,,2,media/dinb.png,1,Symb,h,RT,0,0,79,0,1,3,1.8,2,h,1,2.17319,79,0,79,0,1,,,,,
,,,,,,,,,,,,,,,2,2,2020-12-08_10h00.47.225,Context_Learning_Pilot,2020.1.3,MacIntel,60,,,,,,,1,media/dnnb.png,2,Symb,l,RT,0,0,80,0,1,3,1.8,2,l,1,1.492585,80,0,80,0,1,,,,,
,,,,,,,,,,,,,,,2,2,2020-12-08_10h00.47.225,Context_Learning_Pilot,2020.1.3,MacIntel,60,,,,,,,0,media/djnb.png,1,Symb,u,RT,0,0,81,0,1,3,1.8,2,u,1,1.137755,81,0,81,0,1,,,,,
,,,,,,,,,,,,,,,2,2,2020-12-08_10h00.47.225,Context_Learning_Pilot,2020.1.3,MacIntel,60,,,,,,,0,media/djnb.png,2,Symb,h,RT,0,0,82,0,1,3,1.8,2,h,1,0.712925,82,0,82,0,1,,,,,
,,,,,,,,,,,,,,,2,2,2020-12-08_10h00.47.225,Context_Learning_Pilot,2020.1.3,MacIntel,60,,,,,,,2,media/dinb.png,2,Symb,u,RT,0,0,83,0,1,3,1.8,2,u,1,1.158905,83,0,83,0,1,,,,,
,,,,,,,,,,,,,,,2,2,2020-12-08_10h00.47.225,Context_Learning_Pilot,2020.1.3,MacIntel,60,,,,,,,3,media/ddnb.png,1,Symb,l,RT,0,0,84,0,1,3,1.8,2,l,1,1.246455,84,0,84,0,1,,,,,
,,,,,,,,,,,,,,,2,2,2020-12-08_10h00.47.225,Context_Learning_Pilot,2020.1.3,MacIntel,60,,,,,,,0,media/djnb.png,1,Symb,u,RT,0,0,85,0,1,3,1.8,2,u,1,2.436405,85,0,85,0,1,,,,,
,,,,,,,,,,,,,,,2,2,2020-12-08_10h00.47.225,Context_Learning_Pilot,2020.1.3,MacIntel,60,,,,,,,2,media/dinb.png,2,Symb,u,RT,0,0,86,0,1,3,1.8,2,u,1,0.84492,86,0,86,0,1,,,,,
,,,,,,,,,,,,,,,2,2,2020-12-08_10h00.47.225,Context_Learning_Pilot,2020.1.3,MacIntel,60,,,,,,,2,media/dinb.png,1,Symb,h,RT,0,0,87,0,1,3,1.8,2,h,1,0.73987,87,0,87,0,1,,,,,
,,,,,,,,,,,,,,,2,2,2020-12-08_10h00.47.225,Context_Learning_Pilot,2020.1.3,MacIntel,60,,,,,,,1,media/dnnb.png,1,Symb,i,RT,0,0,88,0,1,3,1.8,2,l,0,1.37735,88,0,88,0,1,,,,,
,,,,,,,,,,,,,,,2,2,2020-12-08_10h00.47.225,Context_Learning_Pilot,2020.1.3,MacIntel,60,,,,,,,1,media/dnnb.png,1,Symb,i,RT,0,0,89,0,1,3,1.8,2,i,1,0.91245,89,0,89,0,1,,,,,
,,,,,,,,,,,,,,,2,2,2020-12-08_10h00.47.225,Context_Learning_Pilot,2020.1.3,MacIntel,60,,,,,,,3,media/ddnb.png,2,Symb,i,RT,0,0,90,0,1,3,1.8,2,i,1,0.910735,90,0,90,0,1,,,,,
,,,,,,,,,,,,,,,2,2,2020-12-08_10h00.47.225,Context_Learning_Pilot,2020.1.3,MacIntel,60,,,,,,,0,media/djnb.png,2,Symb,h,RT,0,0,91,0,1,3,1.8,2,h,1,0.70832,91,0,91,0,1,,,,,
,,,,,,,,,,,,,,,2,2,2020-12-08_10h00.47.225,Context_Learning_Pilot,2020.1.3,MacIntel,60,,,,,,,1,media/dnnb.png,2,Symb,l,RT,0,0,92,0,1,3,1.8,2,l,1,0.630835,92,0,92,0,1,,,,,
,,,,,,,,,,,,,,,2,2,2020-12-08_10h00.47.225,Context_Learning_Pilot,2020.1.3,MacIntel,60,,,,,,,3,media/ddnb.png,1,Symb,l,RT,0,0,93,0,1,3,1.8,2,l,1,0.73225,93,0,93,0,1,,,,,
,,,,,,,,,,,,,,,2,2,2020-12-08_10h00.47.225,Context_Learning_Pilot,2020.1.3,MacIntel,60,,,,,,,3,media/ddnb.png,2,Symb,i,RT,0,0,94,0,1,3,1.8,2,i,1,0.721365,94,0,94,0,1,,,,,
,,,,,,,,,,,,,,,2,2,2020-12-08_10h00.47.225,Context_Learning_Pilot,2020.1.3,MacIntel,60,,,,,,,2,media/dinb.png,1,Symb,h,RT,0,0,95,0,1,3,1.8,2,h,1,1.22351,95,0,95,0,1,,,,,
,,,,,,,,,,,,,,,2,2,2020-12-08_10h00.47.225,Context_Learning_Pilot,2020.1.3,MacIntel,60,,,,,,,,,,,,,,,,,,,,,,,,,,,,,2,0,2,0,1
,,,,,,,,,,,,,,,2,2,2020-12-08_10h00.47.225,Context_Learning_Pilot,2020.1.3,MacIntel,60,,,,,h,2.098175,1,media/dnnb.png,1,Symb,i,RT,0,0,0,0,1,4,1.8,2,i,1,2.106275,0,0,0,0,1,,,,,
,,,,,,,,,,,,,,,2,2,2020-12-08_10h00.47.225,Context_Learning_Pilot,2020.1.3,MacIntel,60,,,,,,,2,media/dinb.png,2,Symb,u,RT,0,0,1,0,1,4,1.8,2,u,1,0.74345,1,0,1,0,1,,,,,
,,,,,,,,,,,,,,,2,2,2020-12-08_10h00.47.225,Context_Learning_Pilot,2020.1.3,MacIntel,60,,,,,,,3,media/ddnb.png,2,Symb,i,RT,0,0,2,0,1,4,1.8,2,i,1,1.19908,2,0,2,0,1,,,,,
,,,,,,,,,,,,,,,2,2,2020-12-08_10h00.47.225,Context_Learning_Pilot,2020.1.3,MacIntel,60,,,,,,,3,media/ddnb.png,1,Symb,l,RT,0,0,3,0,1,4,1.8,2,l,1,0.747225,3,0,3,0,1,,,,,
,,,,,,,,,,,,,,,2,2,2020-12-08_10h00.47.225,Context_Learning_Pilot,2020.1.3,MacIntel,60,,,,,,,0,media/djnb.png,1,Symb,u,RT,0,0,4,0,1,4,1.8,2,u,1,1.2994,4,0,4,0,1,,,,,
,,,,,,,,,,,,,,,2,2,2020-12-08_10h00.47.225,Context_Learning_Pilot,2020.1.3,MacIntel,60,,,,,,,1,media/dnnb.png,2,Symb,l,RT,0,0,5,0,1,4,1.8,2,l,1,1.071705,5,0,5,0,1,,,,,
,,,,,,,,,,,,,,,2,2,2020-12-08_10h00.47.225,Context_Learning_Pilot,2020.1.3,MacIntel,60,,,,,,,2,media/dinb.png,2,Symb,u,RT,0,0,6,0,1,4,1.8,2,h,0,1.545755,6,0,6,0,1,,,,,
,,,,,,,,,,,,,,,2,2,2020-12-08_10h00.47.225,Context_Learning_Pilot,2020.1.3,MacIntel,60,,,,,,,1,media/dnnb.png,1,Symb,i,RT,0,0,7,0,1,4,1.8,2,i,1,1.25904,7,0,7,0,1,,,,,
,,,,,,,,,,,,,,,2,2,2020-12-08_10h00.47.225,Context_Learning_Pilot,2020.1.3,MacIntel,60,,,,,,,2,media/dinb.png,1,Symb,h,RT,0,0,8,0,1,4,1.8,2,u,0,0.797135,8,0,8,0,1,,,,,
,,,,,,,,,,,,,,,2,2,2020-12-08_10h00.47.225,Context_Learning_Pilot,2020.1.3,MacIntel,60,,,,,,,3,media/ddnb.png,2,Symb,i,RT,0,0,9,0,1,4,1.8,2,i,1,2.694005,9,0,9,0,1,,,,,
,,,,,,,,,,,,,,,2,2,2020-12-08_10h00.47.225,Context_Learning_Pilot,2020.1.3,MacIntel,60,,,,,,,1,media/dnnb.png,2,Symb,l,RT,0,0,10,0,1,4,1.8,2,l,1,0.643035,10,0,10,0,1,,,,,
,,,,,,,,,,,,,,,2,2,2020-12-08_10h00.47.225,Context_Learning_Pilot,2020.1.3,MacIntel,60,,,,,,,3,media/ddnb.png,1,Symb,l,RT,0,0,11,0,1,4,1.8,2,l,1,0.7432,11,0,11,0,1,,,,,
,,,,,,,,,,,,,,,2,2,2020-12-08_10h00.47.225,Context_Learning_Pilot,2020.1.3,MacIntel,60,,,,,,,0,media/djnb.png,1,Symb,u,RT,0,0,12,0,1,4,1.8,2,u,1,1.28913,12,0,12,0,1,,,,,
,,,,,,,,,,,,,,,2,2,2020-12-08_10h00.47.225,Context_Learning_Pilot,2020.1.3,MacIntel,60,,,,,,,2,media/dinb.png,1,Symb,h,RT,0,0,13,0,1,4,1.8,2,h,1,0.90733,13,0,13,0,1,,,,,
,,,,,,,,,,,,,,,2,2,2020-12-08_10h00.47.225,Context_Learning_Pilot,2020.1.3,MacIntel,60,,,,,,,0,media/djnb.png,2,Symb,h,RT,0,0,14,0,1,4,1.8,2,h,1,0.864605,14,0,14,0,1,,,,,
,,,,,,,,,,,,,,,2,2,2020-12-08_10h00.47.225,Context_Learning_Pilot,2020.1.3,MacIntel,60,,,,,,,0,media/djnb.png,2,Symb,h,RT,0,0,15,0,1,4,1.8,2,h,1,0.46588,15,0,15,0,1,,,,,
,,,,,,,,,,,,,,,2,2,2020-12-08_10h00.47.225,Context_Learning_Pilot,2020.1.3,MacIntel,60,,,,,,,1,media/dnnb.png,1,Symb,i,RT,0,0,16,0,1,4,1.8,2,i,1,0.96508,16,0,16,0,1,,,,,
,,,,,,,,,,,,,,,2,2,2020-12-08_10h00.47.225,Context_Learning_Pilot,2020.1.3,MacIntel,60,,,,,,,0,media/djnb.png,2,Symb,h,RT,0,0,17,0,1,4,1.8,2,h,1,1.19301,17,0,17,0,1,,,,,
,,,,,,,,,,,,,,,2,2,2020-12-08_10h00.47.225,Context_Learning_Pilot,2020.1.3,MacIntel,60,,,,,,,2,media/dinb.png,2,Symb,u,RT,0,0,18,0,1,4,1.8,2,u,1,1.601925,18,0,18,0,1,,,,,
,,,,,,,,,,,,,,,2,2,2020-12-08_10h00.47.225,Context_Learning_Pilot,2020.1.3,MacIntel,60,,,,,,,3,media/ddnb.png,2,Symb,i,RT,0,0,19,0,1,4,1.8,2,i,1,0.98375,19,0,19,0,1,,,,,
,,,,,,,,,,,,,,,2,2,2020-12-08_10h00.47.225,Context_Learning_Pilot,2020.1.3,MacIntel,60,,,,,,,2,media/dinb.png,2,Symb,u,RT,0,0,20,0,1,4,1.8,2,h,0,1.38193,20,0,20,0,1,,,,,
,,,,,,,,,,,,,,,2,2,2020-12-08_10h00.47.225,Context_Learning_Pilot,2020.1.3,MacIntel,60,,,,,,,0,media/djnb.png,1,Symb,u,RT,0,0,21,0,1,4,1.8,2,u,1,2.504485,21,0,21,0,1,,,,,
,,,,,,,,,,,,,,,2,2,2020-12-08_10h00.47.225,Context_Learning_Pilot,2020.1.3,MacIntel,60,,,,,,,2,media/dinb.png,1,Symb,h,RT,0,0,22,0,1,4,1.8,2,h,1,0.767125,22,0,22,0,1,,,,,
,,,,,,,,,,,,,,,2,2,2020-12-08_10h00.47.225,Context_Learning_Pilot,2020.1.3,MacIntel,60,,,,,,,3,media/ddnb.png,2,Symb,i,RT,0,0,23,0,1,4,1.8,2,i,1,1.56335,23,0,23,0,1,,,,,
,,,,,,,,,,,,,,,2,2,2020-12-08_10h00.47.225,Context_Learning_Pilot,2020.1.3,MacIntel,60,,,,,,,2,media/dinb.png,1,Symb,h,RT,0,0,24,0,1,4,1.8,2,h,1,1.61052,24,0,24,0,1,,,,,
,,,,,,,,,,,,,,,2,2,2020-12-08_10h00.47.225,Context_Learning_Pilot,2020.1.3,MacIntel,60,,,,,,,3,media/ddnb.png,1,Symb,l,RT,0,0,25,0,1,4,1.8,2,l,1,0.84112,25,0,25,0,1,,,,,
,,,,,,,,,,,,,,,2,2,2020-12-08_10h00.47.225,Context_Learning_Pilot,2020.1.3,MacIntel,60,,,,,,,1,media/dnnb.png,2,Symb,l,RT,0,0,26,0,1,4,1.8,2,l,1,0.913445,26,0,26,0,1,,,,,
,,,,,,,,,,,,,,,2,2,2020-12-08_10h00.47.225,Context_Learning_Pilot,2020.1.3,MacIntel,60,,,,,,,0,media/djnb.png,1,Symb,u,RT,0,0,27,0,1,4,1.8,2,u,1,0.788335,27,0,27,0,1,,,,,
,,,,,,,,,,,,,,,2,2,2020-12-08_10h00.47.225,Context_Learning_Pilot,2020.1.3,MacIntel,60,,,,,,,1,media/dnnb.png,2,Symb,l,RT,0,0,28,0,1,4,1.8,2,l,1,0.80613,28,0,28,0,1,,,,,
,,,,,,,,,,,,,,,2,2,2020-12-08_10h00.47.225,Context_Learning_Pilot,2020.1.3,MacIntel,60,,,,,,,0,media/djnb.png,2,Symb,h,RT,0,0,29,0,1,4,1.8,2,h,1,0.574305,29,0,29,0,1,,,,,
,,,,,,,,,,,,,,,2,2,2020-12-08_10h00.47.225,Context_Learning_Pilot,2020.1.3,MacIntel,60,,,,,,,3,media/ddnb.png,1,Symb,l,RT,0,0,30,0,1,4,1.8,2,l,1,0.95895,30,0,30,0,1,,,,,
,,,,,,,,,,,,,,,2,2,2020-12-08_10h00.47.225,Context_Learning_Pilot,2020.1.3,MacIntel,60,,,,,,,1,media/dnnb.png,1,Symb,i,RT,0,0,31,0,1,4,1.8,2,i,1,0.78844,31,0,31,0,1,,,,,
,,,,,,,,,,,,,,,2,2,2020-12-08_10h00.47.225,Context_Learning_Pilot,2020.1.3,MacIntel,60,,,,,,,3,media/ddnb.png,1,Symb,l,RT,0,0,32,0,1,4,1.8,2,l,1,1.14375,32,0,32,0,1,,,,,
,,,,,,,,,,,,,,,2,2,2020-12-08_10h00.47.225,Context_Learning_Pilot,2020.1.3,MacIntel,60,,,,,,,2,media/dinb.png,1,Symb,h,RT,0,0,33,0,1,4,1.8,2,h,1,0.635815,33,0,33,0,1,,,,,
,,,,,,,,,,,,,,,2,2,2020-12-08_10h00.47.225,Context_Learning_Pilot,2020.1.3,MacIntel,60,,,,,,,3,media/ddnb.png,1,Symb,l,RT,0,0,34,0,1,4,1.8,2,l,1,0.935715,34,0,34,0,1,,,,,
,,,,,,,,,,,,,,,2,2,2020-12-08_10h00.47.225,Context_Learning_Pilot,2020.1.3,MacIntel,60,,,,,,,1,media/dnnb.png,1,Symb,i,RT,0,0,35,0,1,4,1.8,2,i,1,0.69536,35,0,35,0,1,,,,,
,,,,,,,,,,,,,,,2,2,2020-12-08_10h00.47.225,Context_Learning_Pilot,2020.1.3,MacIntel,60,,,,,,,0,media/djnb.png,2,Symb,h,RT,0,0,36,0,1,4,1.8,2,h,1,0.64699,36,0,36,0,1,,,,,
,,,,,,,,,,,,,,,2,2,2020-12-08_10h00.47.225,Context_Learning_Pilot,2020.1.3,MacIntel,60,,,,,,,2,media/dinb.png,1,Symb,h,RT,0,0,37,0,1,4,1.8,2,h,1,1.01579,37,0,37,0,1,,,,,
,,,,,,,,,,,,,,,2,2,2020-12-08_10h00.47.225,Context_Learning_Pilot,2020.1.3,MacIntel,60,,,,,,,0,media/djnb.png,2,Symb,h,RT,0,0,38,0,1,4,1.8,2,h,1,0.59785,38,0,38,0,1,,,,,
,,,,,,,,,,,,,,,2,2,2020-12-08_10h00.47.225,Context_Learning_Pilot,2020.1.3,MacIntel,60,,,,,,,0,media/djnb.png,1,Symb,u,RT,0,0,39,0,1,4,1.8,2,u,1,0.618185,39,0,39,0,1,,,,,
,,,,,,,,,,,,,,,2,2,2020-12-08_10h00.47.225,Context_Learning_Pilot,2020.1.3,MacIntel,60,,,,,,,3,media/ddnb.png,2,Symb,i,RT,0,0,40,0,1,4,1.8,2,l,0,0.67892,40,0,40,0,1,,,,,
,,,,,,,,,,,,,,,2,2,2020-12-08_10h00.47.225,Context_Learning_Pilot,2020.1.3,MacIntel,60,,,,,,,2,media/dinb.png,2,Symb,u,RT,0,0,41,0,1,4,1.8,2,u,1,3.040755,41,0,41,0,1,,,,,
,,,,,,,,,,,,,,,2,2,2020-12-08_10h00.47.225,Context_Learning_Pilot,2020.1.3,MacIntel,60,,,,,,,1,media/dnnb.png,1,Symb,i,RT,0,0,42,0,1,4,1.8,2,i,1,1.67037,42,0,42,0,1,,,,,
,,,,,,,,,,,,,,,2,2,2020-12-08_10h00.47.225,Context_Learning_Pilot,2020.1.3,MacIntel,60,,,,,,,2,media/dinb.png,2,Symb,u,RT,0,0,43,0,1,4,1.8,2,u,1,1.89134,43,0,43,0,1,,,,,
,,,,,,,,,,,,,,,2,2,2020-12-08_10h00.47.225,Context_Learning_Pilot,2020.1.3,MacIntel,60,,,,,,,0,media/djnb.png,1,Symb,u,RT,0,0,44,0,1,4,1.8,2,u,1,1.46639,44,0,44,0,1,,,,,
,,,,,,,,,,,,,,,2,2,2020-12-08_10h00.47.225,Context_Learning_Pilot,2020.1.3,MacIntel,60,,,,,,,1,media/dnnb.png,2,Symb,l,RT,0,0,45,0,1,4,1.8,2,l,1,3.05026,45,0,45,0,1,,,,,
,,,,,,,,,,,,,,,2,2,2020-12-08_10h00.47.225,Context_Learning_Pilot,2020.1.3,MacIntel,60,,,,,,,1,media/dnnb.png,2,Symb,l,RT,0,0,46,0,1,4,1.8,2,l,1,0.558215,46,0,46,0,1,,,,,
,,,,,,,,,,,,,,,2,2,2020-12-08_10h00.47.225,Context_Learning_Pilot,2020.1.3,MacIntel,60,,,,,,,3,media/ddnb.png,2,Symb,i,RT,0,0,47,0,1,4,1.8,2,i,1,0.741665,47,0,47,0,1,,,,,
,,,,,,,,,,,,,,,2,2,2020-12-08_10h00.47.225,Context_Learning_Pilot,2020.1.3,MacIntel,60,,,,,,,2,media/dinb.png,1,Symb,h,RT,0,0,48,0,1,4,1.8,2,h,1,0.863285,48,0,48,0,1,,,,,
,,,,,,,,,,,,,,,2,2,2020-12-08_10h00.47.225,Context_Learning_Pilot,2020.1.3,MacIntel,60,,,,,,,1,media/dnnb.png,2,Symb,l,RT,0,0,49,0,1,4,1.8,2,l,1,0.639085,49,0,49,0,1,,,,,
,,,,,,,,,,,,,,,2,2,2020-12-08_10h00.47.225,Context_Learning_Pilot,2020.1.3,MacIntel,60,,,,,,,1,media/dnnb.png,1,Symb,i,RT,0,0,50,0,1,4,1.8,2,i,1,0.942275,50,0,50,0,1,,,,,
,,,,,,,,,,,,,,,2,2,2020-12-08_10h00.47.225,Context_Learning_Pilot,2020.1.3,MacIntel,60,,,,,,,3,media/ddnb.png,1,Symb,l,RT,0,0,51,0,1,4,1.8,2,l,1,2.15078,51,0,51,0,1,,,,,
,,,,,,,,,,,,,,,2,2,2020-12-08_10h00.47.225,Context_Learning_Pilot,2020.1.3,MacIntel,60,,,,,,,0,media/djnb.png,1,Symb,u,RT,0,0,52,0,1,4,1.8,2,u,1,0.79087,52,0,52,0,1,,,,,
,,,,,,,,,,,,,,,2,2,2020-12-08_10h00.47.225,Context_Learning_Pilot,2020.1.3,MacIntel,60,,,,,,,2,media/dinb.png,2,Symb,u,RT,0,0,53,0,1,4,1.8,2,u,1,2.40869,53,0,53,0,1,,,,,
,,,,,,,,,,,,,,,2,2,2020-12-08_10h00.47.225,Context_Learning_Pilot,2020.1.3,MacIntel,60,,,,,,,1,media/dnnb.png,1,Symb,i,RT,0,0,54,0,1,4,1.8,2,i,1,1.175395,54,0,54,0,1,,,,,
,,,,,,,,,,,,,,,2,2,2020-12-08_10h00.47.225,Context_Learning_Pilot,2020.1.3,MacIntel,60,,,,,,,3,media/ddnb.png,1,Symb,l,RT,0,0,55,0,1,4,1.8,2,l,1,0.83447,55,0,55,0,1,,,,,
,,,,,,,,,,,,,,,2,2,2020-12-08_10h00.47.225,Context_Learning_Pilot,2020.1.3,MacIntel,60,,,,,,,0,media/djnb.png,2,Symb,h,RT,0,0,56,0,1,4,1.8,2,h,1,0.63746,56,0,56,0,1,,,,,
,,,,,,,,,,,,,,,2,2,2020-12-08_10h00.47.225,Context_Learning_Pilot,2020.1.3,MacIntel,60,,,,,,,2,media/dinb.png,2,Symb,u,RT,0,0,57,0,1,4,1.8,2,u,1,1.730615,57,0,57,0,1,,,,,
,,,,,,,,,,,,,,,2,2,2020-12-08_10h00.47.225,Context_Learning_Pilot,2020.1.3,MacIntel,60,,,,,,,3,media/ddnb.png,2,Symb,i,RT,0,0,58,0,1,4,1.8,2,i,1,0.84426,58,0,58,0,1,,,,,
,,,,,,,,,,,,,,,2,2,2020-12-08_10h00.47.225,Context_Learning_Pilot,2020.1.3,MacIntel,60,,,,,,,0,media/djnb.png,2,Symb,h,RT,0,0,59,0,1,4,1.8,2,h,1,0.71017,59,0,59,0,1,,,,,
,,,,,,,,,,,,,,,2,2,2020-12-08_10h00.47.225,Context_Learning_Pilot,2020.1.3,MacIntel,60,,,,,,,2,media/dinb.png,1,Symb,h,RT,0,0,60,0,1,4,1.8,2,h,1,0.936995,60,0,60,0,1,,,,,
,,,,,,,,,,,,,,,2,2,2020-12-08_10h00.47.225,Context_Learning_Pilot,2020.1.3,MacIntel,60,,,,,,,1,media/dnnb.png,2,Symb,l,RT,0,0,61,0,1,4,1.8,2,l,1,1.157345,61,0,61,0,1,,,,,
,,,,,,,,,,,,,,,2,2,2020-12-08_10h00.47.225,Context_Learning_Pilot,2020.1.3,MacIntel,60,,,,,,,3,media/ddnb.png,2,Symb,i,RT,0,0,62,0,1,4,1.8,2,i,1,0.784035,62,0,62,0,1,,,,,
,,,,,,,,,,,,,,,2,2,2020-12-08_10h00.47.225,Context_Learning_Pilot,2020.1.3,MacIntel,60,,,,,,,0,media/djnb.png,1,Symb,u,RT,0,0,63,0,1,4,1.8,2,u,1,0.81986,63,0,63,0,1,,,,,
,,,,,,,,,,,,,,,2,2,2020-12-08_10h00.47.225,Context_Learning_Pilot,2020.1.3,MacIntel,60,,,,,,,0,media/djnb.png,2,Symb,h,RT,0,0,64,0,1,4,1.8,2,h,1,0.51258,64,0,64,0,1,,,,,
,,,,,,,,,,,,,,,2,2,2020-12-08_10h00.47.225,Context_Learning_Pilot,2020.1.3,MacIntel,60,,,,,,,0,media/djnb.png,2,Symb,h,RT,0,0,65,0,1,4,1.8,2,h,1,0.56915,65,0,65,0,1,,,,,
,,,,,,,,,,,,,,,2,2,2020-12-08_10h00.47.225,Context_Learning_Pilot,2020.1.3,MacIntel,60,,,,,,,2,media/dinb.png,1,Symb,h,RT,0,0,66,0,1,4,1.8,2,u,0,1.48364,66,0,66,0,1,,,,,
,,,,,,,,,,,,,,,2,2,2020-12-08_10h00.47.225,Context_Learning_Pilot,2020.1.3,MacIntel,60,,,,,,,2,media/dinb.png,2,Symb,u,RT,0,0,67,0,1,4,1.8,2,u,1,0.689075,67,0,67,0,1,,,,,
,,,,,,,,,,,,,,,2,2,2020-12-08_10h00.47.225,Context_Learning_Pilot,2020.1.3,MacIntel,60,,,,,,,1,media/dnnb.png,1,Symb,i,RT,0,0,68,0,1,4,1.8,2,i,1,1.104695,68,0,68,0,1,,,,,
,,,,,,,,,,,,,,,2,2,2020-12-08_10h00.47.225,Context_Learning_Pilot,2020.1.3,MacIntel,60,,,,,,,3,media/ddnb.png,2,Symb,i,RT,0,0,69,0,1,4,1.8,2,i,1,2.68017,69,0,69,0,1,,,,,
,,,,,,,,,,,,,,,2,2,2020-12-08_10h00.47.225,Context_Learning_Pilot,2020.1.3,MacIntel,60,,,,,,,2,media/dinb.png,2,Symb,u,RT,0,0,70,0,1,4,1.8,2,u,1,0.95871,70,0,70,0,1,,,,,
,,,,,,,,,,,,,,,2,2,2020-12-08_10h00.47.225,Context_Learning_Pilot,2020.1.3,MacIntel,60,,,,,,,1,media/dnnb.png,2,Symb,l,RT,0,0,71,0,1,4,1.8,2,l,1,0.86106,71,0,71,0,1,,,,,
,,,,,,,,,,,,,,,2,2,2020-12-08_10h00.47.225,Context_Learning_Pilot,2020.1.3,MacIntel,60,,,,,,,3,media/ddnb.png,1,Symb,l,RT,0,0,72,0,1,4,1.8,2,l,1,1.509005,72,0,72,0,1,,,,,
,,,,,,,,,,,,,,,2,2,2020-12-08_10h00.47.225,Context_Learning_Pilot,2020.1.3,MacIntel,60,,,,,,,0,media/djnb.png,1,Symb,u,RT,0,0,73,0,1,4,1.8,2,u,1,1.8065,73,0,73,0,1,,,,,
,,,,,,,,,,,,,,,2,2,2020-12-08_10h00.47.225,Context_Learning_Pilot,2020.1.3,MacIntel,60,,,,,,,3,media/ddnb.png,1,Symb,l,RT,0,0,74,0,1,4,1.8,2,i,0,2.457175,74,0,74,0,1,,,,,
,,,,,,,,,,,,,,,2,2,2020-12-08_10h00.47.225,Context_Learning_Pilot,2020.1.3,MacIntel,60,,,,,,,1,media/dnnb.png,2,Symb,l,RT,0,0,75,0,1,4,1.8,2,l,1,0.77901,75,0,75,0,1,,,,,
,,,,,,,,,,,,,,,2,2,2020-12-08_10h00.47.225,Context_Learning_Pilot,2020.1.3,MacIntel,60,,,,,,,0,media/djnb.png,1,Symb,u,RT,0,0,76,0,1,4,1.8,2,u,1,0.74369,76,0,76,0,1,,,,,
,,,,,,,,,,,,,,,2,2,2020-12-08_10h00.47.225,Context_Learning_Pilot,2020.1.3,MacIntel,60,,,,,,,2,media/dinb.png,1,Symb,h,RT,0,0,77,0,1,4,1.8,2,h,1,0.99281,77,0,77,0,1,,,,,
,,,,,,,,,,,,,,,2,2,2020-12-08_10h00.47.225,Context_Learning_Pilot,2020.1.3,MacIntel,60,,,,,,,3,media/ddnb.png,2,Symb,i,RT,0,0,78,0,1,4,1.8,2,i,1,0.767465,78,0,78,0,1,,,,,
,,,,,,,,,,,,,,,2,2,2020-12-08_10h00.47.225,Context_Learning_Pilot,2020.1.3,MacIntel,60,,,,,,,1,media/dnnb.png,1,Symb,i,RT,0,0,79,0,1,4,1.8,2,i,1,0.979525,79,0,79,0,1,,,,,
,,,,,,,,,,,,,,,2,2,2020-12-08_10h00.47.225,Context_Learning_Pilot,2020.1.3,MacIntel,60,,,,,,,3,media/ddnb.png,1,Symb,l,RT,0,0,80,0,1,4,1.8,2,l,1,0.68217,80,0,80,0,1,,,,,
,,,,,,,,,,,,,,,2,2,2020-12-08_10h00.47.225,Context_Learning_Pilot,2020.1.3,MacIntel,60,,,,,,,1,media/dnnb.png,2,Symb,l,RT,0,0,81,0,1,4,1.8,2,l,1,0.725095,81,0,81,0,1,,,,,
,,,,,,,,,,,,,,,2,2,2020-12-08_10h00.47.225,Context_Learning_Pilot,2020.1.3,MacIntel,60,,,,,,,2,media/dinb.png,2,Symb,u,RT,0,0,82,0,1,4,1.8,2,u,1,2.30997,82,0,82,0,1,,,,,
,,,,,,,,,,,,,,,2,2,2020-12-08_10h00.47.225,Context_Learning_Pilot,2020.1.3,MacIntel,60,,,,,,,2,media/dinb.png,1,Symb,h,RT,0,0,83,0,1,4,1.8,2,h,1,0.756365,83,0,83,0,1,,,,,
,,,,,,,,,,,,,,,2,2,2020-12-08_10h00.47.225,Context_Learning_Pilot,2020.1.3,MacIntel,60,,,,,,,1,media/dnnb.png,1,Symb,i,RT,0,0,84,0,1,4,1.8,2,i,1,0.847335,84,0,84,0,1,,,,,
,,,,,,,,,,,,,,,2,2,2020-12-08_10h00.47.225,Context_Learning_Pilot,2020.1.3,MacIntel,60,,,,,,,2,media/dinb.png,1,Symb,h,RT,0,0,85,0,1,4,1.8,2,h,1,0.87504,85,0,85,0,1,,,,,
,,,,,,,,,,,,,,,2,2,2020-12-08_10h00.47.225,Context_Learning_Pilot,2020.1.3,MacIntel,60,,,,,,,1,media/dnnb.png,1,Symb,i,RT,0,0,86,0,1,4,1.8,2,i,1,1.433955,86,0,86,0,1,,,,,
,,,,,,,,,,,,,,,2,2,2020-12-08_10h00.47.225,Context_Learning_Pilot,2020.1.3,MacIntel,60,,,,,,,2,media/dinb.png,2,Symb,u,RT,0,0,87,0,1,4,1.8,2,u,1,1.462005,87,0,87,0,1,,,,,
,,,,,,,,,,,,,,,2,2,2020-12-08_10h00.47.225,Context_Learning_Pilot,2020.1.3,MacIntel,60,,,,,,,0,media/djnb.png,1,Symb,u,RT,0,0,88,0,1,4,1.8,2,u,1,1.37726,88,0,88,0,1,,,,,
,,,,,,,,,,,,,,,2,2,2020-12-08_10h00.47.225,Context_Learning_Pilot,2020.1.3,MacIntel,60,,,,,,,0,media/djnb.png,2,Symb,h,RT,0,0,89,0,1,4,1.8,2,h,1,0.841265,89,0,89,0,1,,,,,
,,,,,,,,,,,,,,,2,2,2020-12-08_10h00.47.225,Context_Learning_Pilot,2020.1.3,MacIntel,60,,,,,,,0,media/djnb.png,2,Symb,h,RT,0,0,90,0,1,4,1.8,2,h,1,0.733365,90,0,90,0,1,,,,,
,,,,,,,,,,,,,,,2,2,2020-12-08_10h00.47.225,Context_Learning_Pilot,2020.1.3,MacIntel,60,,,,,,,0,media/djnb.png,1,Symb,u,RT,0,0,91,0,1,4,1.8,2,u,1,0.937015,91,0,91,0,1,,,,,
,,,,,,,,,,,,,,,2,2,2020-12-08_10h00.47.225,Context_Learning_Pilot,2020.1.3,MacIntel,60,,,,,,,3,media/ddnb.png,2,Symb,i,RT,0,0,92,0,1,4,1.8,2,i,1,1.21416,92,0,92,0,1,,,,,
,,,,,,,,,,,,,,,2,2,2020-12-08_10h00.47.225,Context_Learning_Pilot,2020.1.3,MacIntel,60,,,,,,,1,media/dnnb.png,2,Symb,l,RT,0,0,93,0,1,4,1.8,2,l,1,0.640465,93,0,93,0,1,,,,,
,,,,,,,,,,,,,,,2,2,2020-12-08_10h00.47.225,Context_Learning_Pilot,2020.1.3,MacIntel,60,,,,,,,3,media/ddnb.png,2,Symb,i,RT,0,0,94,0,1,4,1.8,2,i,1,0.702005,94,0,94,0,1,,,,,
,,,,,,,,,,,,,,,2,2,2020-12-08_10h00.47.225,Context_Learning_Pilot,2020.1.3,MacIntel,60,,,,,,,3,media/ddnb.png,1,Symb,l,RT,0,0,95,0,1,4,1.8,2,l,1,0.83876,95,0,95,0,1,,,,,
,,,,,,,,,,,,,,,2,2,2020-12-08_10h00.47.225,Context_Learning_Pilot,2020.1.3,MacIntel,60,,,,,,,,,,,,,,,,,,,,,,,,,,,,,3,0,3,0,1
,,,,,,,,,,,,,,,2,2,2020-12-08_10h00.47.225,Context_Learning_Pilot,2020.1.3,MacIntel,60,,,,,h,2.698105,3,media/ddnb.png,2,Symb,i,RT,0,0,0,0,1,5,1.8,2,i,1,1.31439,0,0,0,0,1,,,,,
,,,,,,,,,,,,,,,2,2,2020-12-08_10h00.47.225,Context_Learning_Pilot,2020.1.3,MacIntel,60,,,,,,,2,media/dinb.png,2,Symb,u,RT,0,0,1,0,1,5,1.8,2,u,1,1.001535,1,0,1,0,1,,,,,
,,,,,,,,,,,,,,,2,2,2020-12-08_10h00.47.225,Context_Learning_Pilot,2020.1.3,MacIntel,60,,,,,,,1,media/dnnb.png,1,Symb,i,RT,0,0,2,0,1,5,1.8,2,i,1,0.98752,2,0,2,0,1,,,,,
,,,,,,,,,,,,,,,2,2,2020-12-08_10h00.47.225,Context_Learning_Pilot,2020.1.3,MacIntel,60,,,,,,,3,media/ddnb.png,2,Symb,i,RT,0,0,3,0,1,5,1.8,2,i,1,1.070375,3,0,3,0,1,,,,,
,,,,,,,,,,,,,,,2,2,2020-12-08_10h00.47.225,Context_Learning_Pilot,2020.1.3,MacIntel,60,,,,,,,1,media/dnnb.png,1,Symb,i,RT,0,0,4,0,1,5,1.8,2,l,0,1.028835,4,0,4,0,1,,,,,
,,,,,,,,,,,,,,,2,2,2020-12-08_10h00.47.225,Context_Learning_Pilot,2020.1.3,MacIntel,60,,,,,,,2,media/dinb.png,1,Symb,h,RT,0,0,5,0,1,5,1.8,2,h,1,1.523845,5,0,5,0,1,,,,,
,,,,,,,,,,,,,,,2,2,2020-12-08_10h00.47.225,Context_Learning_Pilot,2020.1.3,MacIntel,60,,,,,,,1,media/dnnb.png,2,Symb,l,RT,0,0,6,0,1,5,1.8,2,l,1,0.67047,6,0,6,0,1,,,,,
,,,,,,,,,,,,,,,2,2,2020-12-08_10h00.47.225,Context_Learning_Pilot,2020.1.3,MacIntel,60,,,,,,,0,media/djnb.png,2,Symb,h,RT,0,0,7,0,1,5,1.8,2,h,1,0.6793,7,0,7,0,1,,,,,
,,,,,,,,,,,,,,,2,2,2020-12-08_10h00.47.225,Context_Learning_Pilot,2020.1.3,MacIntel,60,,,,,,,2,media/dinb.png,1,Symb,h,RT,0,0,8,0,1,5,1.8,2,h,1,0.498435,8,0,8,0,1,,,,,
,,,,,,,,,,,,,,,2,2,2020-12-08_10h00.47.225,Context_Learning_Pilot,2020.1.3,MacIntel,60,,,,,,,3,media/ddnb.png,1,Symb,l,RT,0,0,9,0,1,5,1.8,2,l,1,0.848365,9,0,9,0,1,,,,,
,,,,,,,,,,,,,,,2,2,2020-12-08_10h00.47.225,Context_Learning_Pilot,2020.1.3,MacIntel,60,,,,,,,0,media/djnb.png,2,Symb,h,RT,0,0,10,0,1,5,1.8,2,h,1,0.694445,10,0,10,0,1,,,,,
,,,,,,,,,,,,,,,2,2,2020-12-08_10h00.47.225,Context_Learning_Pilot,2020.1.3,MacIntel,60,,,,,,,1,media/dnnb.png,2,Symb,l,RT,0,0,11,0,1,5,1.8,2,l,1,0.663465,11,0,11,0,1,,,,,
,,,,,,,,,,,,,,,2,2,2020-12-08_10h00.47.225,Context_Learning_Pilot,2020.1.3,MacIntel,60,,,,,,,3,media/ddnb.png,1,Symb,l,RT,0,0,12,0,1,5,1.8,2,l,1,0.886745,12,0,12,0,1,,,,,
,,,,,,,,,,,,,,,2,2,2020-12-08_10h00.47.225,Context_Learning_Pilot,2020.1.3,MacIntel,60,,,,,,,0,media/djnb.png,1,Symb,u,RT,0,0,13,0,1,5,1.8,2,u,1,0.90162,13,0,13,0,1,,,,,
,,,,,,,,,,,,,,,2,2,2020-12-08_10h00.47.225,Context_Learning_Pilot,2020.1.3,MacIntel,60,,,,,,,2,media/dinb.png,2,Symb,u,RT,0,0,14,0,1,5,1.8,2,u,1,1.058915,14,0,14,0,1,,,,,
,,,,,,,,,,,,,,,2,2,2020-12-08_10h00.47.225,Context_Learning_Pilot,2020.1.3,MacIntel,60,,,,,,,0,media/djnb.png,1,Symb,u,RT,0,0,15,0,1,5,1.8,2,u,1,1.28157,15,0,15,0,1,,,,,
,,,,,,,,,,,,,,,2,2,2020-12-08_10h00.47.225,Context_Learning_Pilot,2020.1.3,MacIntel,60,,,,,,,2,media/dinb.png,2,Symb,u,RT,0,0,16,0,1,5,1.8,2,u,1,0.972625,16,0,16,0,1,,,,,
,,,,,,,,,,,,,,,2,2,2020-12-08_10h00.47.225,Context_Learning_Pilot,2020.1.3,MacIntel,60,,,,,,,1,media/dnnb.png,2,Symb,l,RT,0,0,17,0,1,5,1.8,2,l,1,0.91751,17,0,17,0,1,,,,,
,,,,,,,,,,,,,,,2,2,2020-12-08_10h00.47.225,Context_Learning_Pilot,2020.1.3,MacIntel,60,,,,,,,1,media/dnnb.png,2,Symb,l,RT,0,0,18,0,1,5,1.8,2,l,1,0.636165,18,0,18,0,1,,,,,
,,,,,,,,,,,,,,,2,2,2020-12-08_10h00.47.225,Context_Learning_Pilot,2020.1.3,MacIntel,60,,,,,,,1,media/dnnb.png,1,Symb,i,RT,0,0,19,0,1,5,1.8,2,i,1,0.74477,19,0,19,0,1,,,,,
,,,,,,,,,,,,,,,2,2,2020-12-08_10h00.47.225,Context_Learning_Pilot,2020.1.3,MacIntel,60,,,,,,,0,media/djnb.png,1,Symb,u,RT,0,0,20,0,1,5,1.8,2,u,1,1.201905,20,0,20,0,1,,,,,
,,,,,,,,,,,,,,,2,2,2020-12-08_10h00.47.225,Context_Learning_Pilot,2020.1.3,MacIntel,60,,,,,,,1,media/dnnb.png,1,Symb,i,RT,0,0,21,0,1,5,1.8,2,i,1,0.718615,21,0,21,0,1,,,,,
,,,,,,,,,,,,,,,2,2,2020-12-08_10h00.47.225,Context_Learning_Pilot,2020.1.3,MacIntel,60,,,,,,,0,media/djnb.png,2,Symb,h,RT,0,0,22,0,1,5,1.8,2,h,1,0.798375,22,0,22,0,1,,,,,
,,,,,,,,,,,,,,,2,2,2020-12-08_10h00.47.225,Context_Learning_Pilot,2020.1.3,MacIntel,60,,,,,,,2,media/dinb.png,1,Symb,h,RT,0,0,23,0,1,5,1.8,2,h,1,1.4653,23,0,23,0,1,,,,,
,,,,,,,,,,,,,,,2,2,2020-12-08_10h00.47.225,Context_Learning_Pilot,2020.1.3,MacIntel,60,,,,,,,3,media/ddnb.png,1,Symb,l,RT,0,0,24,0,1,5,1.8,2,l,1,1.268815,24,0,24,0,1,,,,,
,,,,,,,,,,,,,,,2,2,2020-12-08_10h00.47.225,Context_Learning_Pilot,2020.1.3,MacIntel,60,,,,,,,0,media/djnb.png,2,Symb,h,RT,0,0,25,0,1,5,1.8,2,h,1,0.667575,25,0,25,0,1,,,,,
,,,,,,,,,,,,,,,2,2,2020-12-08_10h00.47.225,Context_Learning_Pilot,2020.1.3,MacIntel,60,,,,,,,0,media/djnb.png,1,Symb,u,RT,0,0,26,0,1,5,1.8,2,u,1,1.096455,26,0,26,0,1,,,,,
,,,,,,,,,,,,,,,2,2,2020-12-08_10h00.47.225,Context_Learning_Pilot,2020.1.3,MacIntel,60,,,,,,,3,media/ddnb.png,1,Symb,l,RT,0,0,27,0,1,5,1.8,2,l,1,1.463865,27,0,27,0,1,,,,,
,,,,,,,,,,,,,,,2,2,2020-12-08_10h00.47.225,Context_Learning_Pilot,2020.1.3,MacIntel,60,,,,,,,3,media/ddnb.png,2,Symb,i,RT,0,0,28,0,1,5,1.8,2,i,1,0.707985,28,0,28,0,1,,,,,
,,,,,,,,,,,,,,,2,2,2020-12-08_10h00.47.225,Context_Learning_Pilot,2020.1.3,MacIntel,60,,,,,,,2,media/dinb.png,2,Symb,u,RT,0,0,29,0,1,5,1.8,2,u,1,0.7926,29,0,29,0,1,,,,,
,,,,,,,,,,,,,,,2,2,2020-12-08_10h00.47.225,Context_Learning_Pilot,2020.1.3,MacIntel,60,,,,,,,2,media/dinb.png,1,Symb,h,RT,0,0,30,0,1,5,1.8,2,h,1,0.743295,30,0,30,0,1,,,,,
,,,,,,,,,,,,,,,2,2,2020-12-08_10h00.47.225,Context_Learning_Pilot,2020.1.3,MacIntel,60,,,,,,,3,media/ddnb.png,2,Symb,i,RT,0,0,31,0,1,5,1.8,2,i,1,1.39478,31,0,31,0,1,,,,,
,,,,,,,,,,,,,,,2,2,2020-12-08_10h00.47.225,Context_Learning_Pilot,2020.1.3,MacIntel,60,,,,,,,2,media/dinb.png,1,Symb,h,RT,0,0,32,0,1,5,1.8,2,h,1,0.75603,32,0,32,0,1,,,,,
,,,,,,,,,,,,,,,2,2,2020-12-08_10h00.47.225,Context_Learning_Pilot,2020.1.3,MacIntel,60,,,,,,,3,media/ddnb.png,1,Symb,l,RT,0,0,33,0,1,5,1.8,2,l,1,0.72501,33,0,33,0,1,,,,,
,,,,,,,,,,,,,,,2,2,2020-12-08_10h00.47.225,Context_Learning_Pilot,2020.1.3,MacIntel,60,,,,,,,2,media/dinb.png,1,Symb,h,RT,0,0,34,0,1,5,1.8,2,h,1,1.016105,34,0,34,0,1,,,,,
,,,,,,,,,,,,,,,2,2,2020-12-08_10h00.47.225,Context_Learning_Pilot,2020.1.3,MacIntel,60,,,,,,,1,media/dnnb.png,1,Symb,i,RT,0,0,35,0,1,5,1.8,2,i,1,0.980305,35,0,35,0,1,,,,,
,,,,,,,,,,,,,,,2,2,2020-12-08_10h00.47.225,Context_Learning_Pilot,2020.1.3,MacIntel,60,,,,,,,1,media/dnnb.png,2,Symb,l,RT,0,0,36,0,1,5,1.8,2,l,1,0.82064,36,0,36,0,1,,,,,
,,,,,,,,,,,,,,,2,2,2020-12-08_10h00.47.225,Context_Learning_Pilot,2020.1.3,MacIntel,60,,,,,,,0,media/djnb.png,2,Symb,h,RT,0,0,37,0,1,5,1.8,2,h,1,0.618,37,0,37,0,1,,,,,
,,,,,,,,,,,,,,,2,2,2020-12-08_10h00.47.225,Context_Learning_Pilot,2020.1.3,MacIntel,60,,,,,,,0,media/djnb.png,2,Symb,h,RT,0,0,38,0,1,5,1.8,2,h,1,0.664865,38,0,38,0,1,,,,,
,,,,,,,,,,,,,,,2,2,2020-12-08_10h00.47.225,Context_Learning_Pilot,2020.1.3,MacIntel,60,,,,,,,3,media/ddnb.png,2,Symb,i,RT,0,0,39,0,1,5,1.8,2,i,1,1.67851,39,0,39,0,1,,,,,
,,,,,,,,,,,,,,,2,2,2020-12-08_10h00.47.225,Context_Learning_Pilot,2020.1.3,MacIntel,60,,,,,,,3,media/ddnb.png,2,Symb,i,RT,0,0,40,0,1,5,1.8,2,i,1,0.537205,40,0,40,0,1,,,,,
,,,,,,,,,,,,,,,2,2,2020-12-08_10h00.47.225,Context_Learning_Pilot,2020.1.3,MacIntel,60,,,,,,,3,media/ddnb.png,1,Symb,l,RT,0,0,41,0,1,5,1.8,2,l,1,0.718395,41,0,41,0,1,,,,,
,,,,,,,,,,,,,,,2,2,2020-12-08_10h00.47.225,Context_Learning_Pilot,2020.1.3,MacIntel,60,,,,,,,2,media/dinb.png,2,Symb,u,RT,0,0,42,0,1,5,1.8,2,u,1,1.005075,42,0,42,0,1,,,,,
,,,,,,,,,,,,,,,2,2,2020-12-08_10h00.47.225,Context_Learning_Pilot,2020.1.3,MacIntel,60,,,,,,,0,media/djnb.png,1,Symb,u,RT,0,0,43,0,1,5,1.8,2,u,1,0.863755,43,0,43,0,1,,,,,
,,,,,,,,,,,,,,,2,2,2020-12-08_10h00.47.225,Context_Learning_Pilot,2020.1.3,MacIntel,60,,,,,,,0,media/djnb.png,1,Symb,u,RT,0,0,44,0,1,5,1.8,2,u,1,0.527215,44,0,44,0,1,,,,,
,,,,,,,,,,,,,,,2,2,2020-12-08_10h00.47.225,Context_Learning_Pilot,2020.1.3,MacIntel,60,,,,,,,2,media/dinb.png,2,Symb,u,RT,0,0,45,0,1,5,1.8,2,u,1,0.729475,45,0,45,0,1,,,,,
,,,,,,,,,,,,,,,2,2,2020-12-08_10h00.47.225,Context_Learning_Pilot,2020.1.3,MacIntel,60,,,,,,,1,media/dnnb.png,1,Symb,i,RT,0,0,46,0,1,5,1.8,2,i,1,1.46804,46,0,46,0,1,,,,,
,,,,,,,,,,,,,,,2,2,2020-12-08_10h00.47.225,Context_Learning_Pilot,2020.1.3,MacIntel,60,,,,,,,1,media/dnnb.png,2,Symb,l,RT,0,0,47,0,1,5,1.8,2,l,1,0.629685,47,0,47,0,1,,,,,
,,,,,,,,,,,,,,,2,2,2020-12-08_10h00.47.225,Context_Learning_Pilot,2020.1.3,MacIntel,60,,,,,,,2,media/dinb.png,1,Symb,h,RT,0,0,48,0,1,5,1.8,2,h,1,0.7617,48,0,48,0,1,,,,,
,,,,,,,,,,,,,,,2,2,2020-12-08_10h00.47.225,Context_Learning_Pilot,2020.1.3,MacIntel,60,,,,,,,3,media/ddnb.png,1,Symb,l,RT,0,0,49,0,1,5,1.8,2,l,1,0.92427,49,0,49,0,1,,,,,
,,,,,,,,,,,,,,,2,2,2020-12-08_10h00.47.225,Context_Learning_Pilot,2020.1.3,MacIntel,60,,,,,,,2,media/dinb.png,2,Symb,u,RT,0,0,50,0,1,5,1.8,2,h,0,0.726005,50,0,50,0,1,,,,,
,,,,,,,,,,,,,,,2,2,2020-12-08_10h00.47.225,Context_Learning_Pilot,2020.1.3,MacIntel,60,,,,,,,3,media/ddnb.png,2,Symb,i,RT,0,0,51,0,1,5,1.8,2,i,1,1.187555,51,0,51,0,1,,,,,
,,,,,,,,,,,,,,,2,2,2020-12-08_10h00.47.225,Context_Learning_Pilot,2020.1.3,MacIntel,60,,,,,,,0,media/djnb.png,2,Symb,h,RT,0,0,52,0,1,5,1.8,2,h,1,1.15983,52,0,52,0,1,,,,,
,,,,,,,,,,,,,,,2,2,2020-12-08_10h00.47.225,Context_Learning_Pilot,2020.1.3,MacIntel,60,,,,,,,1,media/dnnb.png,1,Symb,i,RT,0,0,53,0,1,5,1.8,2,i,1,1.107805,53,0,53,0,1,,,,,
,,,,,,,,,,,,,,,2,2,2020-12-08_10h00.47.225,Context_Learning_Pilot,2020.1.3,MacIntel,60,,,,,,,2,media/dinb.png,1,Symb,h,RT,0,0,54,0,1,5,1.8,2,h,1,2.216215,54,0,54,0,1,,,,,
,,,,,,,,,,,,,,,2,2,2020-12-08_10h00.47.225,Context_Learning_Pilot,2020.1.3,MacIntel,60,,,,,,,3,media/ddnb.png,1,Symb,l,RT,0,0,55,0,1,5,1.8,2,i,0,2.89133,55,0,55,0,1,,,,,
,,,,,,,,,,,,,,,2,2,2020-12-08_10h00.47.225,Context_Learning_Pilot,2020.1.3,MacIntel,60,,,,,,,1,media/dnnb.png,2,Symb,l,RT,0,0,56,0,1,5,1.8,2,l,1,0.85131,56,0,56,0,1,,,,,
,,,,,,,,,,,,,,,2,2,2020-12-08_10h00.47.225,Context_Learning_Pilot,2020.1.3,MacIntel,60,,,,,,,2,media/dinb.png,2,Symb,u,RT,0,0,57,0,1,5,1.8,2,h,0,0.787325,57,0,57,0,1,,,,,
,,,,,,,,,,,,,,,2,2,2020-12-08_10h00.47.225,Context_Learning_Pilot,2020.1.3,MacIntel,60,,,,,,,1,media/dnnb.png,2,Symb,l,RT,0,0,58,0,1,5,1.8,2,l,1,0.79589,58,0,58,0,1,,,,,
,,,,,,,,,,,,,,,2,2,2020-12-08_10h00.47.225,Context_Learning_Pilot,2020.1.3,MacIntel,60,,,,,,,0,media/djnb.png,2,Symb,h,RT,0,0,59,0,1,5,1.8,2,h,1,1.429995,59,0,59,0,1,,,,,
,,,,,,,,,,,,,,,2,2,2020-12-08_10h00.47.225,Context_Learning_Pilot,2020.1.3,MacIntel,60,,,,,,,3,media/ddnb.png,2,Symb,i,RT,0,0,60,0,1,5,1.8,2,i,1,2.11779,60,0,60,0,1,,,,,
,,,,,,,,,,,,,,,2,2,2020-12-08_10h00.47.225,Context_Learning_Pilot,2020.1.3,MacIntel,60,,,,,,,0,media/djnb.png,1,Symb,u,RT,0,0,61,0,1,5,1.8,2,u,1,0.76315,61,0,61,0,1,,,,,
,,,,,,,,,,,,,,,2,2,2020-12-08_10h00.47.225,Context_Learning_Pilot,2020.1.3,MacIntel,60,,,,,,,1,media/dnnb.png,1,Symb,i,RT,0,0,62,0,1,5,1.8,2,i,1,1.17398,62,0,62,0,1,,,,,
,,,,,,,,,,,,,,,2,2,2020-12-08_10h00.47.225,Context_Learning_Pilot,2020.1.3,MacIntel,60,,,,,,,0,media/djnb.png,1,Symb,u,RT,0,0,63,0,1,5,1.8,2,u,1,0.94402,63,0,63,0,1,,,,,
,,,,,,,,,,,,,,,2,2,2020-12-08_10h00.47.225,Context_Learning_Pilot,2020.1.3,MacIntel,60,,,,,,,2,media/dinb.png,1,Symb,h,RT,0,0,64,0,1,5,1.8,2,h,1,0.653265,64,0,64,0,1,,,,,
,,,,,,,,,,,,,,,2,2,2020-12-08_10h00.47.225,Context_Learning_Pilot,2020.1.3,MacIntel,60,,,,,,,0,media/djnb.png,1,Symb,u,RT,0,0,65,0,1,5,1.8,2,u,1,0.69613,65,0,65,0,1,,,,,
,,,,,,,,,,,,,,,2,2,2020-12-08_10h00.47.225,Context_Learning_Pilot,2020.1.3,MacIntel,60,,,,,,,0,media/djnb.png,2,Symb,h,RT,0,0,66,0,1,5,1.8,2,h,1,0.74445,66,0,66,0,1,,,,,
,,,,,,,,,,,,,,,2,2,2020-12-08_10h00.47.225,Context_Learning_Pilot,2020.1.3,MacIntel,60,,,,,,,0,media/djnb.png,2,Symb,h,RT,0,0,67,0,1,5,1.8,2,h,1,0.529715,67,0,67,0,1,,,,,
,,,,,,,,,,,,,,,2,2,2020-12-08_10h00.47.225,Context_Learning_Pilot,2020.1.3,MacIntel,60,,,,,,,3,media/ddnb.png,2,Symb,i,RT,0,0,68,0,1,5,1.8,2,i,1,1.337955,68,0,68,0,1,,,,,
,,,,,,,,,,,,,,,2,2,2020-12-08_10h00.47.225,Context_Learning_Pilot,2020.1.3,MacIntel,60,,,,,,,2,media/dinb.png,1,Symb,h,RT,0,0,69,0,1,5,1.8,2,h,1,0.92161,69,0,69,0,1,,,,,
,,,,,,,,,,,,,,,2,2,2020-12-08_10h00.47.225,Context_Learning_Pilot,2020.1.3,MacIntel,60,,,,,,,3,media/ddnb.png,2,Symb,i,RT,0,0,70,0,1,5,1.8,2,i,1,0.7179,70,0,70,0,1,,,,,
,,,,,,,,,,,,,,,2,2,2020-12-08_10h00.47.225,Context_Learning_Pilot,2020.1.3,MacIntel,60,,,,,,,3,media/ddnb.png,1,Symb,l,RT,0,0,71,0,1,5,1.8,2,l,1,0.7078,71,0,71,0,1,,,,,
,,,,,,,,,,,,,,,2,2,2020-12-08_10h00.47.225,Context_Learning_Pilot,2020.1.3,MacIntel,60,,,,,,,1,media/dnnb.png,1,Symb,i,RT,0,0,72,0,1,5,1.8,2,i,1,0.798005,72,0,72,0,1,,,,,
,,,,,,,,,,,,,,,2,2,2020-12-08_10h00.47.225,Context_Learning_Pilot,2020.1.3,MacIntel,60,,,,,,,2,media/dinb.png,2,Symb,u,RT,0,0,73,0,1,5,1.8,2,u,1,0.990545,73,0,73,0,1,,,,,
,,,,,,,,,,,,,,,2,2,2020-12-08_10h00.47.225,Context_Learning_Pilot,2020.1.3,MacIntel,60,,,,,,,3,media/ddnb.png,1,Symb,l,RT,0,0,74,0,1,5,1.8,2,l,1,1.006945,74,0,74,0,1,,,,,
,,,,,,,,,,,,,,,2,2,2020-12-08_10h00.47.225,Context_Learning_Pilot,2020.1.3,MacIntel,60,,,,,,,1,media/dnnb.png,2,Symb,l,RT,0,0,75,0,1,5,1.8,2,l,1,0.78079,75,0,75,0,1,,,,,
,,,,,,,,,,,,,,,2,2,2020-12-08_10h00.47.225,Context_Learning_Pilot,2020.1.3,MacIntel,60,,,,,,,1,media/dnnb.png,1,Symb,i,RT,0,0,76,0,1,5,1.8,2,i,1,0.887315,76,0,76,0,1,,,,,
,,,,,,,,,,,,,,,2,2,2020-12-08_10h00.47.225,Context_Learning_Pilot,2020.1.3,MacIntel,60,,,,,,,0,media/djnb.png,1,Symb,u,RT,0,0,77,0,1,5,1.8,2,u,1,1.01892,77,0,77,0,1,,,,,
,,,,,,,,,,,,,,,2,2,2020-12-08_10h00.47.225,Context_Learning_Pilot,2020.1.3,MacIntel,60,,,,,,,1,media/dnnb.png,2,Symb,l,RT,0,0,78,0,1,5,1.8,2,l,1,0.74346,78,0,78,0,1,,,,,
,,,,,,,,,,,,,,,2,2,2020-12-08_10h00.47.225,Context_Learning_Pilot,2020.1.3,MacIntel,60,,,,,,,2,media/dinb.png,2,Symb,u,RT,0,0,79,0,1,5,1.8,2,u,1,2.218625,79,0,79,0,1,,,,,
,,,,,,,,,,,,,,,2,2,2020-12-08_10h00.47.225,Context_Learning_Pilot,2020.1.3,MacIntel,60,,,,,,,0,media/djnb.png,2,Symb,h,RT,0,0,80,0,1,5,1.8,2,h,1,0.923855,80,0,80,0,1,,,,,
,,,,,,,,,,,,,,,2,2,2020-12-08_10h00.47.225,Context_Learning_Pilot,2020.1.3,MacIntel,60,,,,,,,2,media/dinb.png,2,Symb,u,RT,0,0,81,0,1,5,1.8,2,u,1,0.978425,81,0,81,0,1,,,,,
,,,,,,,,,,,,,,,2,2,2020-12-08_10h00.47.225,Context_Learning_Pilot,2020.1.3,MacIntel,60,,,,,,,1,media/dnnb.png,2,Symb,l,RT,0,0,82,0,1,5,1.8,2,l,1,0.8532,82,0,82,0,1,,,,,
,,,,,,,,,,,,,,,2,2,2020-12-08_10h00.47.225,Context_Learning_Pilot,2020.1.3,MacIntel,60,,,,,,,2,media/dinb.png,1,Symb,h,RT,0,0,83,0,1,5,1.8,2,h,1,1.339675,83,0,83,0,1,,,,,
,,,,,,,,,,,,,,,2,2,2020-12-08_10h00.47.225,Context_Learning_Pilot,2020.1.3,MacIntel,60,,,,,,,1,media/dnnb.png,2,Symb,l,RT,0,0,84,0,1,5,1.8,2,l,1,0.752745,84,0,84,0,1,,,,,
,,,,,,,,,,,,,,,2,2,2020-12-08_10h00.47.225,Context_Learning_Pilot,2020.1.3,MacIntel,60,,,,,,,3,media/ddnb.png,1,Symb,l,RT,0,0,85,0,1,5,1.8,2,i,0,1.605525,85,0,85,0,1,,,,,
,,,,,,,,,,,,,,,2,2,2020-12-08_10h00.47.225,Context_Learning_Pilot,2020.1.3,MacIntel,60,,,,,,,2,media/dinb.png,1,Symb,h,RT,0,0,86,0,1,5,1.8,2,h,1,1.551925,86,0,86,0,1,,,,,
,,,,,,,,,,,,,,,2,2,2020-12-08_10h00.47.225,Context_Learning_Pilot,2020.1.3,MacIntel,60,,,,,,,3,media/ddnb.png,1,Symb,l,RT,0,0,87,0,1,5,1.8,2,i,0,1.014965,87,0,87,0,1,,,,,
,,,,,,,,,,,,,,,2,2,2020-12-08_10h00.47.225,Context_Learning_Pilot,2020.1.3,MacIntel,60,,,,,,,0,media/djnb.png,1,Symb,u,RT,0,0,88,0,1,5,1.8,2,h,0,0.693885,88,0,88,0,1,,,,,
,,,,,,,,,,,,,,,2,2,2020-12-08_10h00.47.225,Context_Learning_Pilot,2020.1.3,MacIntel,60,,,,,,,1,media/dnnb.png,1,Symb,i,RT,0,0,89,0,1,5,1.8,2,i,1,0.98357,89,0,89,0,1,,,,,
,,,,,,,,,,,,,,,2,2,2020-12-08_10h00.47.225,Context_Learning_Pilot,2020.1.3,MacIntel,60,,,,,,,0,media/djnb.png,2,Symb,h,RT,0,0,90,0,1,5,1.8,2,h,1,0.7295,90,0,90,0,1,,,,,
,,,,,,,,,,,,,,,2,2,2020-12-08_10h00.47.225,Context_Learning_Pilot,2020.1.3,MacIntel,60,,,,,,,3,media/ddnb.png,2,Symb,i,RT,0,0,91,0,1,5,1.8,2,i,1,1.304215,91,0,91,0,1,,,,,
,,,,,,,,,,,,,,,2,2,2020-12-08_10h00.47.225,Context_Learning_Pilot,2020.1.3,MacIntel,60,,,,,,,1,media/dnnb.png,1,Symb,i,RT,0,0,92,0,1,5,1.8,2,i,1,1.051665,92,0,92,0,1,,,,,
,,,,,,,,,,,,,,,2,2,2020-12-08_10h00.47.225,Context_Learning_Pilot,2020.1.3,MacIntel,60,,,,,,,2,media/dinb.png,2,Symb,u,RT,0,0,93,0,1,5,1.8,2,u,1,1.850785,93,0,93,0,1,,,,,
,,,,,,,,,,,,,,,2,2,2020-12-08_10h00.47.225,Context_Learning_Pilot,2020.1.3,MacIntel,60,,,,,,,0,media/djnb.png,1,Symb,u,RT,0,0,94,0,1,5,1.8,2,h,0,0.66245,94,0,94,0,1,,,,,
,,,,,,,,,,,,,,,2,2,2020-12-08_10h00.47.225,Context_Learning_Pilot,2020.1.3,MacIntel,60,,,,,,,3,media/ddnb.png,2,Symb,i,RT,0,0,95,0,1,5,1.8,2,i,1,2.325625,95,0,95,0,1,,,,,
,,,,,,,,,,,,,,,2,2,2020-12-08_10h00.47.225,Context_Learning_Pilot,2020.1.3,MacIntel,60,,,,,,,,,,,,,,,,,,,,,,,,,,,,,4,0,4,0,1
,,,,,,,,,,,,,,,2,2,2020-12-08_10h00.47.225,Context_Learning_Pilot,2020.1.3,MacIntel,60,,,,,h,8.597295,1,media/dnnb.png,1,Symb,i,RT,0,0,0,0,1,6,1.8,2,i,1,1.632565,0,0,0,0,1,,,,,
,,,,,,,,,,,,,,,2,2,2020-12-08_10h00.47.225,Context_Learning_Pilot,2020.1.3,MacIntel,60,,,,,,,2,media/dinb.png,2,Symb,u,RT,0,0,1,0,1,6,1.8,2,u,1,0.82966,1,0,1,0,1,,,,,
,,,,,,,,,,,,,,,2,2,2020-12-08_10h00.47.225,Context_Learning_Pilot,2020.1.3,MacIntel,60,,,,,,,1,media/dnnb.png,2,Symb,l,RT,0,0,2,0,1,6,1.8,2,l,1,0.6536,2,0,2,0,1,,,,,
,,,,,,,,,,,,,,,2,2,2020-12-08_10h00.47.225,Context_Learning_Pilot,2020.1.3,MacIntel,60,,,,,,,3,media/ddnb.png,1,Symb,l,RT,0,0,3,0,1,6,1.8,2,l,1,2.394455,3,0,3,0,1,,,,,
,,,,,,,,,,,,,,,2,2,2020-12-08_10h00.47.225,Context_Learning_Pilot,2020.1.3,MacIntel,60,,,,,,,0,media/djnb.png,2,Symb,h,RT,0,0,4,0,1,6,1.8,2,h,1,0.629165,4,0,4,0,1,,,,,
,,,,,,,,,,,,,,,2,2,2020-12-08_10h00.47.225,Context_Learning_Pilot,2020.1.3,MacIntel,60,,,,,,,0,media/djnb.png,1,Symb,u,RT,0,0,5,0,1,6,1.8,2,u,1,0.98129,5,0,5,0,1,,,,,
,,,,,,,,,,,,,,,2,2,2020-12-08_10h00.47.225,Context_Learning_Pilot,2020.1.3,MacIntel,60,,,,,,,3,media/ddnb.png,2,Symb,i,RT,0,0,6,0,1,6,1.8,2,i,1,1.896455,6,0,6,0,1,,,,,
,,,,,,,,,,,,,,,2,2,2020-12-08_10h00.47.225,Context_Learning_Pilot,2020.1.3,MacIntel,60,,,,,,,2,media/dinb.png,2,Symb,u,RT,0,0,7,0,1,6,1.8,2,u,1,1.22801,7,0,7,0,1,,,,,
,,,,,,,,,,,,,,,2,2,2020-12-08_10h00.47.225,Context_Learning_Pilot,2020.1.3,MacIntel,60,,,,,,,1,media/dnnb.png,1,Symb,i,RT,0,0,8,0,1,6,1.8,2,i,1,1.131885,8,0,8,0,1,,,,,
,,,,,,,,,,,,,,,2,2,2020-12-08_10h00.47.225,Context_Learning_Pilot,2020.1.3,MacIntel,60,,,,,,,2,media/dinb.png,1,Symb,h,RT,0,0,9,0,1,6,1.8,2,h,1,0.80438,9,0,9,0,1,,,,,
,,,,,,,,,,,,,,,2,2,2020-12-08_10h00.47.225,Context_Learning_Pilot,2020.1.3,MacIntel,60,,,,,,,3,media/ddnb.png,1,Symb,l,RT,0,0,10,0,1,6,1.8,2,i,0,0.936545,10,0,10,0,1,,,,,
,,,,,,,,,,,,,,,2,2,2020-12-08_10h00.47.225,Context_Learning_Pilot,2020.1.3,MacIntel,60,,,,,,,0,media/djnb.png,1,Symb,u,RT,0,0,11,0,1,6,1.8,2,u,1,0.814695,11,0,11,0,1,,,,,
,,,,,,,,,,,,,,,2,2,2020-12-08_10h00.47.225,Context_Learning_Pilot,2020.1.3,MacIntel,60,,,,,,,3,media/ddnb.png,2,Symb,i,RT,0,0,12,0,1,6,1.8,2,i,1,1.23079,12,0,12,0,1,,,,,
,,,,,,,,,,,,,,,2,2,2020-12-08_10h00.47.225,Context_Learning_Pilot,2020.1.3,MacIntel,60,,,,,,,1,media/dnnb.png,2,Symb,l,RT,0,0,13,0,1,6,1.8,2,l,1,0.93625,13,0,13,0,1,,,,,
,,,,,,,,,,,,,,,2,2,2020-12-08_10h00.47.225,Context_Learning_Pilot,2020.1.3,MacIntel,60,,,,,,,0,media/djnb.png,2,Symb,h,RT,0,0,14,0,1,6,1.8,2,h,1,0.94072,14,0,14,0,1,,,,,
,,,,,,,,,,,,,,,2,2,2020-12-08_10h00.47.225,Context_Learning_Pilot,2020.1.3,MacIntel,60,,,,,,,2,media/dinb.png,1,Symb,h,RT,0,0,15,0,1,6,1.8,2,h,1,0.84765,15,0,15,0,1,,,,,
,,,,,,,,,,,,,,,2,2,2020-12-08_10h00.47.225,Context_Learning_Pilot,2020.1.3,MacIntel,60,,,,,,,1,media/dnnb.png,1,Symb,i,RT,0,0,16,0,1,6,1.8,2,i,1,1.02603,16,0,16,0,1,,,,,
,,,,,,,,,,,,,,,2,2,2020-12-08_10h00.47.225,Context_Learning_Pilot,2020.1.3,MacIntel,60,,,,,,,3,media/ddnb.png,1,Symb,l,RT,0,0,17,0,1,6,1.8,2,l,1,0.90626,17,0,17,0,1,,,,,
,,,,,,,,,,,,,,,2,2,2020-12-08_10h00.47.225,Context_Learning_Pilot,2020.1.3,MacIntel,60,,,,,,,0,media/djnb.png,1,Symb,u,RT,0,0,18,0,1,6,1.8,2,u,1,0.75009,18,0,18,0,1,,,,,
,,,,,,,,,,,,,,,2,2,2020-12-08_10h00.47.225,Context_Learning_Pilot,2020.1.3,MacIntel,60,,,,,,,0,media/djnb.png,2,Symb,h,RT,0,0,19,0,1,6,1.8,2,h,1,0.593575,19,0,19,0,1,,,,,
,,,,,,,,,,,,,,,2,2,2020-12-08_10h00.47.225,Context_Learning_Pilot,2020.1.3,MacIntel,60,,,,,,,2,media/dinb.png,2,Symb,u,RT,0,0,20,0,1,6,1.8,2,u,1,0.96519,20,0,20,0,1,,,,,
,,,,,,,,,,,,,,,2,2,2020-12-08_10h00.47.225,Context_Learning_Pilot,2020.1.3,MacIntel,60,,,,,,,3,media/ddnb.png,2,Symb,i,RT,0,0,21,0,1,6,1.8,2,i,1,1.05148,21,0,21,0,1,,,,,
,,,,,,,,,,,,,,,2,2,2020-12-08_10h00.47.225,Context_Learning_Pilot,2020.1.3,MacIntel,60,,,,,,,3,media/ddnb.png,2,Symb,i,RT,0,0,22,0,1,6,1.8,2,i,1,0.55486,22,0,22,0,1,,,,,
,,,,,,,,,,,,,,,2,2,2020-12-08_10h00.47.225,Context_Learning_Pilot,2020.1.3,MacIntel,60,,,,,,,1,media/dnnb.png,1,Symb,i,RT,0,0,23,0,1,6,1.8,2,i,1,1.276665,23,0,23,0,1,,,,,
,,,,,,,,,,,,,,,2,2,2020-12-08_10h00.47.225,Context_Learning_Pilot,2020.1.3,MacIntel,60,,,,,,,1,media/dnnb.png,2,Symb,l,RT,0,0,24,0,1,6,1.8,2,l,1,0.667765,24,0,24,0,1,,,,,
,,,,,,,,,,,,,,,2,2,2020-12-08_10h00.47.225,Context_Learning_Pilot,2020.1.3,MacIntel,60,,,,,,,0,media/djnb.png,1,Symb,u,RT,0,0,25,0,1,6,1.8,2,u,1,0.910595,25,0,25,0,1,,,,,
,,,,,,,,,,,,,,,2,2,2020-12-08_10h00.47.225,Context_Learning_Pilot,2020.1.3,MacIntel,60,,,,,,,2,media/dinb.png,1,Symb,h,RT,0,0,26,0,1,6,1.8,2,h,1,1.14601,26,0,26,0,1,,,,,
,,,,,,,,,,,,,,,2,2,2020-12-08_10h00.47.225,Context_Learning_Pilot,2020.1.3,MacIntel,60,,,,,,,1,media/dnnb.png,2,Symb,l,RT,0,0,27,0,1,6,1.8,2,l,1,0.74351,27,0,27,0,1,,,,,
,,,,,,,,,,,,,,,2,2,2020-12-08_10h00.47.225,Context_Learning_Pilot,2020.1.3,MacIntel,60,,,,,,,2,media/dinb.png,2,Symb,u,RT,0,0,28,0,1,6,1.8,2,u,1,2.92174,28,0,28,0,1,,,,,
,,,,,,,,,,,,,,,2,2,2020-12-08_10h00.47.225,Context_Learning_Pilot,2020.1.3,MacIntel,60,,,,,,,3,media/ddnb.png,1,Symb,l,RT,0,0,29,0,1,6,1.8,2,i,0,1.417585,29,0,29,0,1,,,,,
,,,,,,,,,,,,,,,2,2,2020-12-08_10h00.47.225,Context_Learning_Pilot,2020.1.3,MacIntel,60,,,,,,,0,media/djnb.png,2,Symb,h,RT,0,0,30,0,1,6,1.8,2,h,1,0.79543,30,0,30,0,1,,,,,
,,,,,,,,,,,,,,,2,2,2020-12-08_10h00.47.225,Context_Learning_Pilot,2020.1.3,MacIntel,60,,,,,,,2,media/dinb.png,1,Symb,h,RT,0,0,31,0,1,6,1.8,2,u,0,0.752415,31,0,31,0,1,,,,,
,,,,,,,,,,,,,,,2,2,2020-12-08_10h00.47.225,Context_Learning_Pilot,2020.1.3,MacIntel,60,,,,,,,3,media/ddnb.png,1,Symb,l,RT,0,0,32,0,1,6,1.8,2,l,1,0.756285,32,0,32,0,1,,,,,
,,,,,,,,,,,,,,,2,2,2020-12-08_10h00.47.225,Context_Learning_Pilot,2020.1.3,MacIntel,60,,,,,,,0,media/djnb.png,1,Symb,u,RT,0,0,33,0,1,6,1.8,2,u,1,0.768035,33,0,33,0,1,,,,,
,,,,,,,,,,,,,,,2,2,2020-12-08_10h00.47.225,Context_Learning_Pilot,2020.1.3,MacIntel,60,,,,,,,1,media/dnnb.png,2,Symb,l,RT,0,0,34,0,1,6,1.8,2,l,1,0.789255,34,0,34,0,1,,,,,
,,,,,,,,,,,,,,,2,2,2020-12-08_10h00.47.225,Context_Learning_Pilot,2020.1.3,MacIntel,60,,,,,,,2,media/dinb.png,2,Symb,u,RT,0,0,35,0,1,6,1.8,2,u,1,0.88433,35,0,35,0,1,,,,,
,,,,,,,,,,,,,,,2,2,2020-12-08_10h00.47.225,Context_Learning_Pilot,2020.1.3,MacIntel,60,,,,,,,0,media/djnb.png,2,Symb,h,RT,0,0,36,0,1,6,1.8,2,h,1,0.94257,36,0,36,0,1,,,,,
,,,,,,,,,,,,,,,2,2,2020-12-08_10h00.47.225,Context_Learning_Pilot,2020.1.3,MacIntel,60,,,,,,,3,media/ddnb.png,2,Symb,i,RT,0,0,37,0,1,6,1.8,2,i,1,1.93742,37,0,37,0,1,,,,,
,,,,,,,,,,,,,,,2,2,2020-12-08_10h00.47.225,Context_Learning_Pilot,2020.1.3,MacIntel,60,,,,,,,3,media/ddnb.png,1,Symb,l,RT,0,0,38,0,1,6,1.8,2,l,1,0.636725,38,0,38,0,1,,,,,
,,,,,,,,,,,,,,,2,2,2020-12-08_10h00.47.225,Context_Learning_Pilot,2020.1.3,MacIntel,60,,,,,,,2,media/dinb.png,1,Symb,h,RT,0,0,39,0,1,6,1.8,2,h,1,0.877585,39,0,39,0,1,,,,,
,,,,,,,,,,,,,,,2,2,2020-12-08_10h00.47.225,Context_Learning_Pilot,2020.1.3,MacIntel,60,,,,,,,1,media/dnnb.png,1,Symb,i,RT,0,0,40,0,1,6,1.8,2,i,1,1.002835,40,0,40,0,1,,,,,
,,,,,,,,,,,,,,,2,2,2020-12-08_10h00.47.225,Context_Learning_Pilot,2020.1.3,MacIntel,60,,,,,,,0,media/djnb.png,2,Symb,h,RT,0,0,41,0,1,6,1.8,2,h,1,0.7378,41,0,41,0,1,,,,,
,,,,,,,,,,,,,,,2,2,2020-12-08_10h00.47.225,Context_Learning_Pilot,2020.1.3,MacIntel,60,,,,,,,1,media/dnnb.png,1,Symb,i,RT,0,0,42,0,1,6,1.8,2,i,1,0.98553,42,0,42,0,1,,,,,
,,,,,,,,,,,,,,,2,2,2020-12-08_10h00.47.225,Context_Learning_Pilot,2020.1.3,MacIntel,60,,,,,,,0,media/djnb.png,1,Symb,u,RT,0,0,43,0,1,6,1.8,2,u,1,0.957945,43,0,43,0,1,,,,,
,,,,,,,,,,,,,,,2,2,2020-12-08_10h00.47.225,Context_Learning_Pilot,2020.1.3,MacIntel,60,,,,,,,2,media/dinb.png,1,Symb,h,RT,0,0,44,0,1,6,1.8,2,h,1,1.336365,44,0,44,0,1,,,,,
,,,,,,,,,,,,,,,2,2,2020-12-08_10h00.47.225,Context_Learning_Pilot,2020.1.3,MacIntel,60,,,,,,,3,media/ddnb.png,2,Symb,i,RT,0,0,45,0,1,6,1.8,2,i,1,1.27506,45,0,45,0,1,,,,,
,,,,,,,,,,,,,,,2,2,2020-12-08_10h00.47.225,Context_Learning_Pilot,2020.1.3,MacIntel,60,,,,,,,1,media/dnnb.png,2,Symb,l,RT,0,0,46,0,1,6,1.8,2,l,1,0.74412,46,0,46,0,1,,,,,
,,,,,,,,,,,,,,,2,2,2020-12-08_10h00.47.225,Context_Learning_Pilot,2020.1.3,MacIntel,60,,,,,,,2,media/dinb.png,2,Symb,u,RT,0,0,47,0,1,6,1.8,2,u,1,0.807845,47,0,47,0,1,,,,,
,,,,,,,,,,,,,,,2,2,2020-12-08_10h00.47.225,Context_Learning_Pilot,2020.1.3,MacIntel,60,,,,,,,3,media/ddnb.png,1,Symb,l,RT,0,0,48,0,1,6,1.8,2,l,1,0.718745,48,0,48,0,1,,,,,
,,,,,,,,,,,,,,,2,2,2020-12-08_10h00.47.225,Context_Learning_Pilot,2020.1.3,MacIntel,60,,,,,,,1,media/dnnb.png,2,Symb,l,RT,0,0,49,0,1,6,1.8,2,l,1,0.75319,49,0,49,0,1,,,,,
,,,,,,,,,,,,,,,2,2,2020-12-08_10h00.47.225,Context_Learning_Pilot,2020.1.3,MacIntel,60,,,,,,,2,media/dinb.png,1,Symb,h,RT,0,0,50,0,1,6,1.8,2,h,1,1.039395,50,0,50,0,1,,,,,
,,,,,,,,,,,,,,,2,2,2020-12-08_10h00.47.225,Context_Learning_Pilot,2020.1.3,MacIntel,60,,,,,,,0,media/djnb.png,1,Symb,u,RT,0,0,51,0,1,6,1.8,2,u,1,2.32841,51,0,51,0,1,,,,,
,,,,,,,,,,,,,,,2,2,2020-12-08_10h00.47.225,Context_Learning_Pilot,2020.1.3,MacIntel,60,,,,,,,2,media/dinb.png,1,Symb,h,RT,0,0,52,0,1,6,1.8,2,h,1,0.72107,52,0,52,0,1,,,,,
,,,,,,,,,,,,,,,2,2,2020-12-08_10h00.47.225,Context_Learning_Pilot,2020.1.3,MacIntel,60,,,,,,,0,media/djnb.png,2,Symb,h,RT,0,0,53,0,1,6,1.8,2,h,1,0.643035,53,0,53,0,1,,,,,
,,,,,,,,,,,,,,,2,2,2020-12-08_10h00.47.225,Context_Learning_Pilot,2020.1.3,MacIntel,60,,,,,,,3,media/ddnb.png,1,Symb,l,RT,0,0,54,0,1,6,1.8,2,l,1,0.762205,54,0,54,0,1,,,,,
,,,,,,,,,,,,,,,2,2,2020-12-08_10h00.47.225,Context_Learning_Pilot,2020.1.3,MacIntel,60,,,,,,,3,media/ddnb.png,2,Symb,i,RT,0,0,55,0,1,6,1.8,2,i,1,0.7341,55,0,55,0,1,,,,,
,,,,,,,,,,,,,,,2,2,2020-12-08_10h00.47.225,Context_Learning_Pilot,2020.1.3,MacIntel,60,,,,,,,3,media/ddnb.png,2,Symb,i,RT,0,0,56,0,1,6,1.8,2,i,1,0.52915,56,0,56,0,1,,,,,
,,,,,,,,,,,,,,,2,2,2020-12-08_10h00.47.225,Context_Learning_Pilot,2020.1.3,MacIntel,60,,,,,,,2,media/dinb.png,2,Symb,u,RT,0,0,57,0,1,6,1.8,2,u,1,0.93267,57,0,57,0,1,,,,,
,,,,,,,,,,,,,,,2,2,2020-12-08_10h00.47.225,Context_Learning_Pilot,2020.1.3,MacIntel,60,,,,,,,1,media/dnnb.png,1,Symb,i,RT,0,0,58,0,1,6,1.8,2,i,1,1.877385,58,0,58,0,1,,,,,
,,,,,,,,,,,,,,,2,2,2020-12-08_10h00.47.225,Context_Learning_Pilot,2020.1.3,MacIntel,60,,,,,,,2,media/dinb.png,2,Symb,u,RT,0,0,59,0,1,6,1.8,2,u,1,0.90824,59,0,59,0,1,,,,,
,,,,,,,,,,,,,,,2,2,2020-12-08_10h00.47.225,Context_Learning_Pilot,2020.1.3,MacIntel,60,,,,,,,0,media/djnb.png,1,Symb,u,RT,0,0,60,0,1,6,1.8,2,u,1,0.93978,60,0,60,0,1,,,,,
,,,,,,,,,,,,,,,2,2,2020-12-08_10h00.47.225,Context_Learning_Pilot,2020.1.3,MacIntel,60,,,,,,,0,media/djnb.png,2,Symb,h,RT,0,0,61,0,1,6,1.8,2,h,1,0.57378,61,0,61,0,1,,,,,
,,,,,,,,,,,,,,,2,2,2020-12-08_10h00.47.225,Context_Learning_Pilot,2020.1.3,MacIntel,60,,,,,,,1,media/dnnb.png,2,Symb,l,RT,0,0,62,0,1,6,1.8,2,l,1,0.952535,62,0,62,0,1,,,,,
,,,,,,,,,,,,,,,2,2,2020-12-08_10h00.47.225,Context_Learning_Pilot,2020.1.3,MacIntel,60,,,,,,,1,media/dnnb.png,1,Symb,i,RT,0,0,63,0,1,6,1.8,2,i,1,0.658705,63,0,63,0,1,,,,,
,,,,,,,,,,,,,,,2,2,2020-12-08_10h00.47.225,Context_Learning_Pilot,2020.1.3,MacIntel,60,,,,,,,2,media/dinb.png,1,Symb,h,RT,0,0,64,0,1,6,1.8,2,h,1,0.780195,64,0,64,0,1,,,,,
,,,,,,,,,,,,,,,2,2,2020-12-08_10h00.47.225,Context_Learning_Pilot,2020.1.3,MacIntel,60,,,,,,,1,media/dnnb.png,2,Symb,l,RT,0,0,65,0,1,6,1.8,2,l,1,0.806985,65,0,65,0,1,,,,,
,,,,,,,,,,,,,,,2,2,2020-12-08_10h00.47.225,Context_Learning_Pilot,2020.1.3,MacIntel,60,,,,,,,2,media/dinb.png,1,Symb,h,RT,0,0,66,0,1,6,1.8,2,h,1,1.04252,66,0,66,0,1,,,,,
,,,,,,,,,,,,,,,2,2,2020-12-08_10h00.47.225,Context_Learning_Pilot,2020.1.3,MacIntel,60,,,,,,,3,media/ddnb.png,2,Symb,i,RT,0,0,67,0,1,6,1.8,2,i,1,0.998705,67,0,67,0,1,,,,,
,,,,,,,,,,,,,,,2,2,2020-12-08_10h00.47.225,Context_Learning_Pilot,2020.1.3,MacIntel,60,,,,,,,3,media/ddnb.png,1,Symb,l,RT,0,0,68,0,1,6,1.8,2,l,1,0.508715,68,0,68,0,1,,,,,
,,,,,,,,,,,,,,,2,2,2020-12-08_10h00.47.225,Context_Learning_Pilot,2020.1.3,MacIntel,60,,,,,,,1,media/dnnb.png,1,Symb,i,RT,0,0,69,0,1,6,1.8,2,i,1,0.60837,69,0,69,0,1,,,,,
,,,,,,,,,,,,,,,2,2,2020-12-08_10h00.47.225,Context_Learning_Pilot,2020.1.3,MacIntel,60,,,,,,,3,media/ddnb.png,2,Symb,i,RT,0,0,70,0,1,6,1.8,2,i,1,1.04753,70,0,70,0,1,,,,,
,,,,,,,,,,,,,,,2,2,2020-12-08_10h00.47.225,Context_Learning_Pilot,2020.1.3,MacIntel,60,,,,,,,0,media/djnb.png,2,Symb,h,RT,0,0,71,0,1,6,1.8,2,h,1,0.582185,71,0,71,0,1,,,,,
,,,,,,,,,,,,,,,2,2,2020-12-08_10h00.47.225,Context_Learning_Pilot,2020.1.3,MacIntel,60,,,,,,,1,media/dnnb.png,1,Symb,i,RT,0,0,72,0,1,6,1.8,2,i,1,0.87491,72,0,72,0,1,,,,,
,,,,,,,,,,,,,,,2,2,2020-12-08_10h00.47.225,Context_Learning_Pilot,2020.1.3,MacIntel,60,,,,,,,0,media/djnb.png,1,Symb,u,RT,0,0,73,0,1,6,1.8,2,u,1,0.98099,73,0,73,0,1,,,,,
,,,,,,,,,,,,,,,2,2,2020-12-08_10h00.47.225,Context_Learning_Pilot,2020.1.3,MacIntel,60,,,,,,,1,media/dnnb.png,2,Symb,l,RT,0,0,74,0,1,6,1.8,2,l,1,0.76457,74,0,74,0,1,,,,,
,,,,,,,,,,,,,,,2,2,2020-12-08_10h00.47.225,Context_Learning_Pilot,2020.1.3,MacIntel,60,,,,,,,2,media/dinb.png,2,Symb,u,RT,0,0,75,0,1,6,1.8,2,u,1,1.001195,75,0,75,0,1,,,,,
,,,,,,,,,,,,,,,2,2,2020-12-08_10h00.47.225,Context_Learning_Pilot,2020.1.3,MacIntel,60,,,,,,,3,media/ddnb.png,1,Symb,l,RT,0,0,76,0,1,6,1.8,2,i,0,0.94548,76,0,76,0,1,,,,,
,,,,,,,,,,,,,,,2,2,2020-12-08_10h00.47.225,Context_Learning_Pilot,2020.1.3,MacIntel,60,,,,,,,0,media/djnb.png,2,Symb,h,RT,0,0,77,0,1,6,1.8,2,u,0,0.779595,77,0,77,0,1,,,,,
,,,,,,,,,,,,,,,2,2,2020-12-08_10h00.47.225,Context_Learning_Pilot,2020.1.3,MacIntel,60,,,,,,,0,media/djnb.png,1,Symb,u,RT,0,0,78,0,1,6,1.8,2,u,1,1.45039,78,0,78,0,1,,,,,
,,,,,,,,,,,,,,,2,2,2020-12-08_10h00.47.225,Context_Learning_Pilot,2020.1.3,MacIntel,60,,,,,,,2,media/dinb.png,2,Symb,u,RT,0,0,79,0,1,6,1.8,2,u,1,0.847675,79,0,79,0,1,,,,,
,,,,,,,,,,,,,,,2,2,2020-12-08_10h00.47.225,Context_Learning_Pilot,2020.1.3,MacIntel,60,,,,,,,3,media/ddnb.png,1,Symb,l,RT,0,0,80,0,1,6,1.8,2,l,1,0.75491,80,0,80,0,1,,,,,
,,,,,,,,,,,,,,,2,2,2020-12-08_10h00.47.225,Context_Learning_Pilot,2020.1.3,MacIntel,60,,,,,,,3,media/ddnb.png,2,Symb,i,RT,0,0,81,0,1,6,1.8,2,i,1,0.791285,81,0,81,0,1,,,,,
,,,,,,,,,,,,,,,2,2,2020-12-08_10h00.47.225,Context_Learning_Pilot,2020.1.3,MacIntel,60,,,,,,,2,media/dinb.png,2,Symb,u,RT,0,0,82,0,1,6,1.8,2,u,1,1.97106,82,0,82,0,1,,,,,
,,,,,,,,,,,,,,,2,2,2020-12-08_10h00.47.225,Context_Learning_Pilot,2020.1.3,MacIntel,60,,,,,,,0,media/djnb.png,2,Symb,h,RT,0,0,83,0,1,6,1.8,2,h,1,0.643915,83,0,83,0,1,,,,,
,,,,,,,,,,,,,,,2,2,2020-12-08_10h00.47.225,Context_Learning_Pilot,2020.1.3,MacIntel,60,,,,,,,3,media/ddnb.png,1,Symb,l,RT,0,0,84,0,1,6,1.8,2,l,1,1.151925,84,0,84,0,1,,,,,
,,,,,,,,,,,,,,,2,2,2020-12-08_10h00.47.225,Context_Learning_Pilot,2020.1.3,MacIntel,60,,,,,,,1,media/dnnb.png,2,Symb,l,RT,0,0,85,0,1,6,1.8,2,l,1,1.45579,85,0,85,0,1,,,,,
,,,,,,,,,,,,,,,2,2,2020-12-08_10h00.47.225,Context_Learning_Pilot,2020.1.3,MacIntel,60,,,,,,,0,media/djnb.png,1,Symb,u,RT,0,0,86,0,1,6,1.8,2,u,1,0.74572,86,0,86,0,1,,,,,
,,,,,,,,,,,,,,,2,2,2020-12-08_10h00.47.225,Context_Learning_Pilot,2020.1.3,MacIntel,60,,,,,,,2,media/dinb.png,1,Symb,h,RT,0,0,87,0,1,6,1.8,2,h,1,0.723435,87,0,87,0,1,,,,,
,,,,,,,,,,,,,,,2,2,2020-12-08_10h00.47.225,Context_Learning_Pilot,2020.1.3,MacIntel,60,,,,,,,1,media/dnnb.png,1,Symb,i,RT,0,0,88,0,1,6,1.8,2,i,1,0.966855,88,0,88,0,1,,,,,
,,,,,,,,,,,,,,,2,2,2020-12-08_10h00.47.225,Context_Learning_Pilot,2020.1.3,MacIntel,60,,,,,,,0,media/djnb.png,1,Symb,u,RT,0,0,89,0,1,6,1.8,2,u,1,0.782425,89,0,89,0,1,,,,,
