Import_Stim.thisRepN,Import_Stim.thisTrialN,Import_Stim.thisN,Import_Stim.thisIndex,Import_Stim.ran,Stim,CorrResp,Ctx_color,imStim,imStim_r,imStim_g,x_pos,y_pos,Hand,Feedback,participant,session,date,expName,psychopyVersion,OS,frameRate,stim_key_map_ctx1,stim_key_map_ctx2,Instr_RT_Press.keys,Instr_RT_Press.rt,Instr_Block_Num_Press.keys,Instr_Block_Num_Press.rt,Symbol,Shape,ctx,Stim_Type,Finger,Block_Type,Remap,Repeat_Count,Trial_Count,Grp_B,Brp_R,Block_Num,Set_Prep_Time,Session,RT_Press.keys,RT_Press.corr,RT_Press.rt,RT_Iter.thisRepN,RT_Iter.thisTrialN,RT_Iter.thisN,RT_Iter.thisIndex,RT_Iter.ran,RT_Block.thisRepN,RT_Block.thisTrialN,RT_Block.thisN,RT_Block.thisIndex,RT_Block.ran
0,0,0,0,1,0,h,red,media/djnb.png,media/djnb_r.png,media/djnb_g.png,-0.038,0.075,media/hand.png,media/check.png,2,5,2020-12-15_09h32.59.862,Context_Learning_Pilot,2020.1.3,MacIntel,60,,,,,,,,,,,,,,,,,,,,,,,,,,,,,,,,,
0,1,1,1,1,1,u,red,media/dnnb.png,media/dnnb_r.png,media/dnnb_g.png,0.014,0.1,media/hand.png,media/cross.png,2,5,2020-12-15_09h32.59.862,Context_Learning_Pilot,2020.1.3,MacIntel,60,,,,,,,,,,,,,,,,,,,,,,,,,,,,,,,,,
0,2,2,2,1,2,i,red,media/dinb.png,media/dinb_r.png,media/dinb_g.png,0.057,0.08,media/hand.png,media/check.png,2,5,2020-12-15_09h32.59.862,Context_Learning_Pilot,2020.1.3,MacIntel,60,,,,,,,,,,,,,,,,,,,,,,,,,,,,,,,,,
0,3,3,3,1,3,l,red,media/ddnb.png,media/ddnb_r.png,media/ddnb_g.png,0.1,0.04,media/hand.png,media/cross.png,2,5,2020-12-15_09h32.59.862,Context_Learning_Pilot,2020.1.3,MacIntel,60,,,,,,,,,,,,,,,,,,,,,,,,,,,,,,,,,
0,4,4,4,1,0,h,green,media/djnb.png,media/djnb_r.png,media/djnb_g.png,-0.038,0.075,media/hand.png,media/check.png,2,5,2020-12-15_09h32.59.862,Context_Learning_Pilot,2020.1.3,MacIntel,60,,,,,,,,,,,,,,,,,,,,,,,,,,,,,,,,,
0,5,5,5,1,1,u,green,media/dnnb.png,media/dnnb_r.png,media/dnnb_g.png,0.014,0.1,media/hand.png,media/cross.png,2,5,2020-12-15_09h32.59.862,Context_Learning_Pilot,2020.1.3,MacIntel,60,,,,,,,,,,,,,,,,,,,,,,,,,,,,,,,,,
0,6,6,6,1,2,i,green,media/dinb.png,media/dinb_r.png,media/dinb_g.png,0.057,0.08,media/hand.png,media/check.png,2,5,2020-12-15_09h32.59.862,Context_Learning_Pilot,2020.1.3,MacIntel,60,,,,,,,,,,,,,,,,,,,,,,,,,,,,,,,,,
,,,,,,,,,,,,,,,2,5,2020-12-15_09h32.59.862,Context_Learning_Pilot,2020.1.3,MacIntel,60,"[1,2,0,3]","[0,3,1,2]",h,2.016525,h,2.07157,1,media/dnnb.png,2,Symb,l,RT,0,0,0,0,1,1,1.8,5,l,1,0.89095,0,0,0,0,1,,,,,
,,,,,,,,,,,,,,,2,5,2020-12-15_09h32.59.862,Context_Learning_Pilot,2020.1.3,MacIntel,60,,,,,,,3,media/ddnb.png,2,Symb,i,RT,0,0,1,0,1,1,1.8,5,i,1,0.54228,1,0,1,0,1,,,,,
,,,,,,,,,,,,,,,2,5,2020-12-15_09h32.59.862,Context_Learning_Pilot,2020.1.3,MacIntel,60,,,,,,,3,media/ddnb.png,1,Symb,l,RT,0,0,2,0,1,1,1.8,5,l,1,0.7227,2,0,2,0,1,,,,,
,,,,,,,,,,,,,,,2,5,2020-12-15_09h32.59.862,Context_Learning_Pilot,2020.1.3,MacIntel,60,,,,,,,0,media/djnb.png,2,Symb,h,RT,0,0,3,0,1,1,1.8,5,h,1,0.56542,3,0,3,0,1,,,,,
,,,,,,,,,,,,,,,2,5,2020-12-15_09h32.59.862,Context_Learning_Pilot,2020.1.3,MacIntel,60,,,,,,,1,media/dnnb.png,2,Symb,l,RT,0,0,4,0,1,1,1.8,5,l,1,0.57442,4,0,4,0,1,,,,,
,,,,,,,,,,,,,,,2,5,2020-12-15_09h32.59.862,Context_Learning_Pilot,2020.1.3,MacIntel,60,,,,,,,0,media/djnb.png,1,Symb,u,RT,0,0,5,0,1,1,1.8,5,h,0,0.68519,5,0,5,0,1,,,,,
,,,,,,,,,,,,,,,2,5,2020-12-15_09h32.59.862,Context_Learning_Pilot,2020.1.3,MacIntel,60,,,,,,,2,media/dinb.png,1,Symb,h,RT,0,0,6,0,1,1,1.8,5,h,1,1.04593,6,0,6,0,1,,,,,
,,,,,,,,,,,,,,,2,5,2020-12-15_09h32.59.862,Context_Learning_Pilot,2020.1.3,MacIntel,60,,,,,,,1,media/dnnb.png,1,Symb,i,RT,0,0,7,0,1,1,1.8,5,i,1,1.643555,7,0,7,0,1,,,,,
,,,,,,,,,,,,,,,2,5,2020-12-15_09h32.59.862,Context_Learning_Pilot,2020.1.3,MacIntel,60,,,,,,,2,media/dinb.png,2,Symb,u,RT,0,0,8,0,1,1,1.8,5,u,1,0.789565,8,0,8,0,1,,,,,
,,,,,,,,,,,,,,,2,5,2020-12-15_09h32.59.862,Context_Learning_Pilot,2020.1.3,MacIntel,60,,,,,,,0,media/djnb.png,1,Symb,u,RT,0,0,9,0,1,1,1.8,5,u,1,0.745965,9,0,9,0,1,,,,,
,,,,,,,,,,,,,,,2,5,2020-12-15_09h32.59.862,Context_Learning_Pilot,2020.1.3,MacIntel,60,,,,,,,3,media/ddnb.png,1,Symb,l,RT,0,0,10,0,1,1,1.8,5,l,1,0.836965,10,0,10,0,1,,,,,
,,,,,,,,,,,,,,,2,5,2020-12-15_09h32.59.862,Context_Learning_Pilot,2020.1.3,MacIntel,60,,,,,,,1,media/dnnb.png,1,Symb,i,RT,0,0,11,0,1,1,1.8,5,i,1,0.764035,11,0,11,0,1,,,,,
,,,,,,,,,,,,,,,2,5,2020-12-15_09h32.59.862,Context_Learning_Pilot,2020.1.3,MacIntel,60,,,,,,,0,media/djnb.png,2,Symb,h,RT,0,0,12,0,1,1,1.8,5,h,1,0.80405,12,0,12,0,1,,,,,
,,,,,,,,,,,,,,,2,5,2020-12-15_09h32.59.862,Context_Learning_Pilot,2020.1.3,MacIntel,60,,,,,,,2,media/dinb.png,1,Symb,h,RT,0,0,13,0,1,1,1.8,5,h,1,0.68876,13,0,13,0,1,,,,,
,,,,,,,,,,,,,,,2,5,2020-12-15_09h32.59.862,Context_Learning_Pilot,2020.1.3,MacIntel,60,,,,,,,3,media/ddnb.png,2,Symb,i,RT,0,0,14,0,1,1,1.8,5,i,1,0.741025,14,0,14,0,1,,,,,
,,,,,,,,,,,,,,,2,5,2020-12-15_09h32.59.862,Context_Learning_Pilot,2020.1.3,MacIntel,60,,,,,,,2,media/dinb.png,2,Symb,u,RT,0,0,15,0,1,1,1.8,5,u,1,0.914385,15,0,15,0,1,,,,,
,,,,,,,,,,,,,,,2,5,2020-12-15_09h32.59.862,Context_Learning_Pilot,2020.1.3,MacIntel,60,,,,,,,3,media/ddnb.png,1,Symb,l,RT,0,0,16,0,1,1,1.8,5,l,1,1.171475,16,0,16,0,1,,,,,
,,,,,,,,,,,,,,,2,5,2020-12-15_09h32.59.862,Context_Learning_Pilot,2020.1.3,MacIntel,60,,,,,,,1,media/dnnb.png,1,Symb,i,RT,0,0,17,0,1,1,1.8,5,i,1,0.6482,17,0,17,0,1,,,,,
,,,,,,,,,,,,,,,2,5,2020-12-15_09h32.59.862,Context_Learning_Pilot,2020.1.3,MacIntel,60,,,,,,,3,media/ddnb.png,2,Symb,i,RT,0,0,18,0,1,1,1.8,5,i,1,0.884125,18,0,18,0,1,,,,,
,,,,,,,,,,,,,,,2,5,2020-12-15_09h32.59.862,Context_Learning_Pilot,2020.1.3,MacIntel,60,,,,,,,0,media/djnb.png,1,Symb,u,RT,0,0,19,0,1,1,1.8,5,u,1,0.758105,19,0,19,0,1,,,,,
,,,,,,,,,,,,,,,2,5,2020-12-15_09h32.59.862,Context_Learning_Pilot,2020.1.3,MacIntel,60,,,,,,,0,media/djnb.png,1,Symb,u,RT,0,0,20,0,1,1,1.8,5,u,1,0.73587,20,0,20,0,1,,,,,
,,,,,,,,,,,,,,,2,5,2020-12-15_09h32.59.862,Context_Learning_Pilot,2020.1.3,MacIntel,60,,,,,,,2,media/dinb.png,1,Symb,h,RT,0,0,21,0,1,1,1.8,5,h,1,0.584735,21,0,21,0,1,,,,,
,,,,,,,,,,,,,,,2,5,2020-12-15_09h32.59.862,Context_Learning_Pilot,2020.1.3,MacIntel,60,,,,,,,2,media/dinb.png,2,Symb,u,RT,0,0,22,0,1,1,1.8,5,u,1,0.66494,22,0,22,0,1,,,,,
,,,,,,,,,,,,,,,2,5,2020-12-15_09h32.59.862,Context_Learning_Pilot,2020.1.3,MacIntel,60,,,,,,,0,media/djnb.png,2,Symb,h,RT,0,0,23,0,1,1,1.8,5,h,1,0.7114,23,0,23,0,1,,,,,
,,,,,,,,,,,,,,,2,5,2020-12-15_09h32.59.862,Context_Learning_Pilot,2020.1.3,MacIntel,60,,,,,,,3,media/ddnb.png,1,Symb,l,RT,0,0,24,0,1,1,1.8,5,l,1,0.99872,24,0,24,0,1,,,,,
,,,,,,,,,,,,,,,2,5,2020-12-15_09h32.59.862,Context_Learning_Pilot,2020.1.3,MacIntel,60,,,,,,,2,media/dinb.png,1,Symb,h,RT,0,0,25,0,1,1,1.8,5,h,1,0.722205,25,0,25,0,1,,,,,
,,,,,,,,,,,,,,,2,5,2020-12-15_09h32.59.862,Context_Learning_Pilot,2020.1.3,MacIntel,60,,,,,,,2,media/dinb.png,2,Symb,u,RT,0,0,26,0,1,1,1.8,5,u,1,0.614565,26,0,26,0,1,,,,,
,,,,,,,,,,,,,,,2,5,2020-12-15_09h32.59.862,Context_Learning_Pilot,2020.1.3,MacIntel,60,,,,,,,3,media/ddnb.png,2,Symb,i,RT,0,0,27,0,1,1,1.8,5,i,1,0.65202,27,0,27,0,1,,,,,
,,,,,,,,,,,,,,,2,5,2020-12-15_09h32.59.862,Context_Learning_Pilot,2020.1.3,MacIntel,60,,,,,,,1,media/dnnb.png,1,Symb,i,RT,0,0,28,0,1,1,1.8,5,l,0,0.57523,28,0,28,0,1,,,,,
,,,,,,,,,,,,,,,2,5,2020-12-15_09h32.59.862,Context_Learning_Pilot,2020.1.3,MacIntel,60,,,,,,,1,media/dnnb.png,2,Symb,l,RT,0,0,29,0,1,1,1.8,5,l,1,0.783555,29,0,29,0,1,,,,,
,,,,,,,,,,,,,,,2,5,2020-12-15_09h32.59.862,Context_Learning_Pilot,2020.1.3,MacIntel,60,,,,,,,0,media/djnb.png,2,Symb,h,RT,0,0,30,0,1,1,1.8,5,u,0,0.74668,30,0,30,0,1,,,,,
,,,,,,,,,,,,,,,2,5,2020-12-15_09h32.59.862,Context_Learning_Pilot,2020.1.3,MacIntel,60,,,,,,,1,media/dnnb.png,2,Symb,l,RT,0,0,31,0,1,1,1.8,5,l,1,0.89603,31,0,31,0,1,,,,,
,,,,,,,,,,,,,,,2,5,2020-12-15_09h32.59.862,Context_Learning_Pilot,2020.1.3,MacIntel,60,,,,,,,1,media/dnnb.png,2,Symb,l,RT,0,0,32,0,1,1,1.8,5,l,1,0.566,32,0,32,0,1,,,,,
,,,,,,,,,,,,,,,2,5,2020-12-15_09h32.59.862,Context_Learning_Pilot,2020.1.3,MacIntel,60,,,,,,,1,media/dnnb.png,2,Symb,l,RT,0,0,33,0,1,1,1.8,5,l,1,0.492385,33,0,33,0,1,,,,,
,,,,,,,,,,,,,,,2,5,2020-12-15_09h32.59.862,Context_Learning_Pilot,2020.1.3,MacIntel,60,,,,,,,3,media/ddnb.png,2,Symb,i,RT,0,0,34,0,1,1,1.8,5,i,1,0.57604,34,0,34,0,1,,,,,
,,,,,,,,,,,,,,,2,5,2020-12-15_09h32.59.862,Context_Learning_Pilot,2020.1.3,MacIntel,60,,,,,,,0,media/djnb.png,1,Symb,u,RT,0,0,35,0,1,1,1.8,5,u,1,0.98826,35,0,35,0,1,,,,,
,,,,,,,,,,,,,,,2,5,2020-12-15_09h32.59.862,Context_Learning_Pilot,2020.1.3,MacIntel,60,,,,,,,1,media/dnnb.png,1,Symb,i,RT,0,0,36,0,1,1,1.8,5,i,1,1.037195,36,0,36,0,1,,,,,
,,,,,,,,,,,,,,,2,5,2020-12-15_09h32.59.862,Context_Learning_Pilot,2020.1.3,MacIntel,60,,,,,,,0,media/djnb.png,2,Symb,h,RT,0,0,37,0,1,1,1.8,5,h,1,1.052175,37,0,37,0,1,,,,,
,,,,,,,,,,,,,,,2,5,2020-12-15_09h32.59.862,Context_Learning_Pilot,2020.1.3,MacIntel,60,,,,,,,2,media/dinb.png,1,Symb,h,RT,0,0,38,0,1,1,1.8,5,h,1,0.663715,38,0,38,0,1,,,,,
,,,,,,,,,,,,,,,2,5,2020-12-15_09h32.59.862,Context_Learning_Pilot,2020.1.3,MacIntel,60,,,,,,,0,media/djnb.png,2,Symb,h,RT,0,0,39,0,1,1,1.8,5,h,1,0.923945,39,0,39,0,1,,,,,
,,,,,,,,,,,,,,,2,5,2020-12-15_09h32.59.862,Context_Learning_Pilot,2020.1.3,MacIntel,60,,,,,,,2,media/dinb.png,2,Symb,u,RT,0,0,40,0,1,1,1.8,5,u,1,0.68201,40,0,40,0,1,,,,,
,,,,,,,,,,,,,,,2,5,2020-12-15_09h32.59.862,Context_Learning_Pilot,2020.1.3,MacIntel,60,,,,,,,2,media/dinb.png,2,Symb,u,RT,0,0,41,0,1,1,1.8,5,u,1,0.526675,41,0,41,0,1,,,,,
,,,,,,,,,,,,,,,2,5,2020-12-15_09h32.59.862,Context_Learning_Pilot,2020.1.3,MacIntel,60,,,,,,,0,media/djnb.png,1,Symb,u,RT,0,0,42,0,1,1,1.8,5,u,1,0.95364,42,0,42,0,1,,,,,
,,,,,,,,,,,,,,,2,5,2020-12-15_09h32.59.862,Context_Learning_Pilot,2020.1.3,MacIntel,60,,,,,,,1,media/dnnb.png,1,Symb,i,RT,0,0,43,0,1,1,1.8,5,i,1,0.8042,43,0,43,0,1,,,,,
,,,,,,,,,,,,,,,2,5,2020-12-15_09h32.59.862,Context_Learning_Pilot,2020.1.3,MacIntel,60,,,,,,,3,media/ddnb.png,1,Symb,l,RT,0,0,44,0,1,1,1.8,5,l,1,0.648145,44,0,44,0,1,,,,,
,,,,,,,,,,,,,,,2,5,2020-12-15_09h32.59.862,Context_Learning_Pilot,2020.1.3,MacIntel,60,,,,,,,2,media/dinb.png,1,Symb,h,RT,0,0,45,0,1,1,1.8,5,h,1,0.67597,45,0,45,0,1,,,,,
,,,,,,,,,,,,,,,2,5,2020-12-15_09h32.59.862,Context_Learning_Pilot,2020.1.3,MacIntel,60,,,,,,,3,media/ddnb.png,1,Symb,l,RT,0,0,46,0,1,1,1.8,5,l,1,0.92813,46,0,46,0,1,,,,,
,,,,,,,,,,,,,,,2,5,2020-12-15_09h32.59.862,Context_Learning_Pilot,2020.1.3,MacIntel,60,,,,,,,3,media/ddnb.png,2,Symb,i,RT,0,0,47,0,1,1,1.8,5,i,1,0.59611,47,0,47,0,1,,,,,
,,,,,,,,,,,,,,,2,5,2020-12-15_09h32.59.862,Context_Learning_Pilot,2020.1.3,MacIntel,60,,,,,,,2,media/dinb.png,2,Symb,u,RT,0,0,48,0,1,1,1.8,5,u,1,0.751955,48,0,48,0,1,,,,,
,,,,,,,,,,,,,,,2,5,2020-12-15_09h32.59.862,Context_Learning_Pilot,2020.1.3,MacIntel,60,,,,,,,2,media/dinb.png,1,Symb,h,RT,0,0,49,0,1,1,1.8,5,h,1,0.727895,49,0,49,0,1,,,,,
,,,,,,,,,,,,,,,2,5,2020-12-15_09h32.59.862,Context_Learning_Pilot,2020.1.3,MacIntel,60,,,,,,,3,media/ddnb.png,2,Symb,i,RT,0,0,50,0,1,1,1.8,5,i,1,0.635715,50,0,50,0,1,,,,,
,,,,,,,,,,,,,,,2,5,2020-12-15_09h32.59.862,Context_Learning_Pilot,2020.1.3,MacIntel,60,,,,,,,3,media/ddnb.png,1,Symb,l,RT,0,0,51,0,1,1,1.8,5,l,1,0.66892,51,0,51,0,1,,,,,
,,,,,,,,,,,,,,,2,5,2020-12-15_09h32.59.862,Context_Learning_Pilot,2020.1.3,MacIntel,60,,,,,,,2,media/dinb.png,2,Symb,u,RT,0,0,52,0,1,1,1.8,5,u,1,0.65265,52,0,52,0,1,,,,,
,,,,,,,,,,,,,,,2,5,2020-12-15_09h32.59.862,Context_Learning_Pilot,2020.1.3,MacIntel,60,,,,,,,0,media/djnb.png,1,Symb,u,RT,0,0,53,0,1,1,1.8,5,u,1,0.699455,53,0,53,0,1,,,,,
,,,,,,,,,,,,,,,2,5,2020-12-15_09h32.59.862,Context_Learning_Pilot,2020.1.3,MacIntel,60,,,,,,,0,media/djnb.png,2,Symb,h,RT,0,0,54,0,1,1,1.8,5,h,1,0.70236,54,0,54,0,1,,,,,
,,,,,,,,,,,,,,,2,5,2020-12-15_09h32.59.862,Context_Learning_Pilot,2020.1.3,MacIntel,60,,,,,,,1,media/dnnb.png,2,Symb,l,RT,0,0,55,0,1,1,1.8,5,l,1,0.78834,55,0,55,0,1,,,,,
,,,,,,,,,,,,,,,2,5,2020-12-15_09h32.59.862,Context_Learning_Pilot,2020.1.3,MacIntel,60,,,,,,,2,media/dinb.png,1,Symb,h,RT,0,0,56,0,1,1,1.8,5,h,1,0.791085,56,0,56,0,1,,,,,
,,,,,,,,,,,,,,,2,5,2020-12-15_09h32.59.862,Context_Learning_Pilot,2020.1.3,MacIntel,60,,,,,,,1,media/dnnb.png,1,Symb,i,RT,0,0,57,0,1,1,1.8,5,i,1,1.265085,57,0,57,0,1,,,,,
,,,,,,,,,,,,,,,2,5,2020-12-15_09h32.59.862,Context_Learning_Pilot,2020.1.3,MacIntel,60,,,,,,,1,media/dnnb.png,2,Symb,l,RT,0,0,58,0,1,1,1.8,5,l,1,1.07221,58,0,58,0,1,,,,,
,,,,,,,,,,,,,,,2,5,2020-12-15_09h32.59.862,Context_Learning_Pilot,2020.1.3,MacIntel,60,,,,,,,3,media/ddnb.png,2,Symb,i,RT,0,0,59,0,1,1,1.8,5,i,1,0.725265,59,0,59,0,1,,,,,
,,,,,,,,,,,,,,,2,5,2020-12-15_09h32.59.862,Context_Learning_Pilot,2020.1.3,MacIntel,60,,,,,,,0,media/djnb.png,1,Symb,u,RT,0,0,60,0,1,1,1.8,5,u,1,0.774555,60,0,60,0,1,,,,,
,,,,,,,,,,,,,,,2,5,2020-12-15_09h32.59.862,Context_Learning_Pilot,2020.1.3,MacIntel,60,,,,,,,1,media/dnnb.png,1,Symb,i,RT,0,0,61,0,1,1,1.8,5,i,1,0.93897,61,0,61,0,1,,,,,
,,,,,,,,,,,,,,,2,5,2020-12-15_09h32.59.862,Context_Learning_Pilot,2020.1.3,MacIntel,60,,,,,,,3,media/ddnb.png,1,Symb,l,RT,0,0,62,0,1,1,1.8,5,l,1,0.783915,62,0,62,0,1,,,,,
,,,,,,,,,,,,,,,2,5,2020-12-15_09h32.59.862,Context_Learning_Pilot,2020.1.3,MacIntel,60,,,,,,,0,media/djnb.png,2,Symb,h,RT,0,0,63,0,1,1,1.8,5,h,1,0.55229,63,0,63,0,1,,,,,
,,,,,,,,,,,,,,,2,5,2020-12-15_09h32.59.862,Context_Learning_Pilot,2020.1.3,MacIntel,60,,,,,,,1,media/dnnb.png,2,Symb,l,RT,0,0,64,0,1,1,1.8,5,l,1,0.66496,64,0,64,0,1,,,,,
,,,,,,,,,,,,,,,2,5,2020-12-15_09h32.59.862,Context_Learning_Pilot,2020.1.3,MacIntel,60,,,,,,,2,media/dinb.png,2,Symb,u,RT,0,0,65,0,1,1,1.8,5,u,1,0.78979,65,0,65,0,1,,,,,
,,,,,,,,,,,,,,,2,5,2020-12-15_09h32.59.862,Context_Learning_Pilot,2020.1.3,MacIntel,60,,,,,,,2,media/dinb.png,2,Symb,u,RT,0,0,66,0,1,1,1.8,5,u,1,0.57466,66,0,66,0,1,,,,,
,,,,,,,,,,,,,,,2,5,2020-12-15_09h32.59.862,Context_Learning_Pilot,2020.1.3,MacIntel,60,,,,,,,3,media/ddnb.png,1,Symb,l,RT,0,0,67,0,1,1,1.8,5,l,1,0.67242,67,0,67,0,1,,,,,
,,,,,,,,,,,,,,,2,5,2020-12-15_09h32.59.862,Context_Learning_Pilot,2020.1.3,MacIntel,60,,,,,,,3,media/ddnb.png,2,Symb,i,RT,0,0,68,0,1,1,1.8,5,i,1,0.65229,68,0,68,0,1,,,,,
,,,,,,,,,,,,,,,2,5,2020-12-15_09h32.59.862,Context_Learning_Pilot,2020.1.3,MacIntel,60,,,,,,,1,media/dnnb.png,1,Symb,i,RT,0,0,69,0,1,1,1.8,5,l,0,0.61418,69,0,69,0,1,,,,,
,,,,,,,,,,,,,,,2,5,2020-12-15_09h32.59.862,Context_Learning_Pilot,2020.1.3,MacIntel,60,,,,,,,0,media/djnb.png,2,Symb,h,RT,0,0,70,0,1,1,1.8,5,h,1,0.660095,70,0,70,0,1,,,,,
,,,,,,,,,,,,,,,2,5,2020-12-15_09h32.59.862,Context_Learning_Pilot,2020.1.3,MacIntel,60,,,,,,,1,media/dnnb.png,1,Symb,i,RT,0,0,71,0,1,1,1.8,5,i,1,0.97074,71,0,71,0,1,,,,,
,,,,,,,,,,,,,,,2,5,2020-12-15_09h32.59.862,Context_Learning_Pilot,2020.1.3,MacIntel,60,,,,,,,3,media/ddnb.png,1,Symb,l,RT,0,0,72,0,1,1,1.8,5,l,1,0.88313,72,0,72,0,1,,,,,
,,,,,,,,,,,,,,,2,5,2020-12-15_09h32.59.862,Context_Learning_Pilot,2020.1.3,MacIntel,60,,,,,,,1,media/dnnb.png,2,Symb,l,RT,0,0,73,0,1,1,1.8,5,l,1,0.75349,73,0,73,0,1,,,,,
,,,,,,,,,,,,,,,2,5,2020-12-15_09h32.59.862,Context_Learning_Pilot,2020.1.3,MacIntel,60,,,,,,,0,media/djnb.png,1,Symb,u,RT,0,0,74,0,1,1,1.8,5,u,1,0.86472,74,0,74,0,1,,,,,
,,,,,,,,,,,,,,,2,5,2020-12-15_09h32.59.862,Context_Learning_Pilot,2020.1.3,MacIntel,60,,,,,,,0,media/djnb.png,1,Symb,u,RT,0,0,75,0,1,1,1.8,5,u,1,0.875405,75,0,75,0,1,,,,,
,,,,,,,,,,,,,,,2,5,2020-12-15_09h32.59.862,Context_Learning_Pilot,2020.1.3,MacIntel,60,,,,,,,0,media/djnb.png,2,Symb,h,RT,0,0,76,0,1,1,1.8,5,h,1,0.599295,76,0,76,0,1,,,,,
,,,,,,,,,,,,,,,2,5,2020-12-15_09h32.59.862,Context_Learning_Pilot,2020.1.3,MacIntel,60,,,,,,,2,media/dinb.png,1,Symb,h,RT,0,0,77,0,1,1,1.8,5,h,1,0.562525,77,0,77,0,1,,,,,
,,,,,,,,,,,,,,,2,5,2020-12-15_09h32.59.862,Context_Learning_Pilot,2020.1.3,MacIntel,60,,,,,,,2,media/dinb.png,1,Symb,h,RT,0,0,78,0,1,1,1.8,5,h,1,0.54207,78,0,78,0,1,,,,,
,,,,,,,,,,,,,,,2,5,2020-12-15_09h32.59.862,Context_Learning_Pilot,2020.1.3,MacIntel,60,,,,,,,3,media/ddnb.png,2,Symb,i,RT,0,0,79,0,1,1,1.8,5,i,1,0.665785,79,0,79,0,1,,,,,
,,,,,,,,,,,,,,,2,5,2020-12-15_09h32.59.862,Context_Learning_Pilot,2020.1.3,MacIntel,60,,,,,,,3,media/ddnb.png,1,Symb,l,RT,0,0,80,0,1,1,1.8,5,l,1,0.6139,80,0,80,0,1,,,,,
,,,,,,,,,,,,,,,2,5,2020-12-15_09h32.59.862,Context_Learning_Pilot,2020.1.3,MacIntel,60,,,,,,,1,media/dnnb.png,2,Symb,l,RT,0,0,81,0,1,1,1.8,5,i,0,0.70913,81,0,81,0,1,,,,,
,,,,,,,,,,,,,,,2,5,2020-12-15_09h32.59.862,Context_Learning_Pilot,2020.1.3,MacIntel,60,,,,,,,0,media/djnb.png,2,Symb,h,RT,0,0,82,0,1,1,1.8,5,h,1,0.62861,82,0,82,0,1,,,,,
,,,,,,,,,,,,,,,2,5,2020-12-15_09h32.59.862,Context_Learning_Pilot,2020.1.3,MacIntel,60,,,,,,,1,media/dnnb.png,1,Symb,i,RT,0,0,83,0,1,1,1.8,5,i,1,0.817065,83,0,83,0,1,,,,,
,,,,,,,,,,,,,,,2,5,2020-12-15_09h32.59.862,Context_Learning_Pilot,2020.1.3,MacIntel,60,,,,,,,1,media/dnnb.png,2,Symb,l,RT,0,0,84,0,1,1,1.8,5,l,1,0.51901,84,0,84,0,1,,,,,
,,,,,,,,,,,,,,,2,5,2020-12-15_09h32.59.862,Context_Learning_Pilot,2020.1.3,MacIntel,60,,,,,,,3,media/ddnb.png,2,Symb,i,RT,0,0,85,0,1,1,1.8,5,u,0,1.219865,85,0,85,0,1,,,,,
,,,,,,,,,,,,,,,2,5,2020-12-15_09h32.59.862,Context_Learning_Pilot,2020.1.3,MacIntel,60,,,,,,,2,media/dinb.png,2,Symb,u,RT,0,0,86,0,1,1,1.8,5,u,1,1.030885,86,0,86,0,1,,,,,
,,,,,,,,,,,,,,,2,5,2020-12-15_09h32.59.862,Context_Learning_Pilot,2020.1.3,MacIntel,60,,,,,,,0,media/djnb.png,1,Symb,u,RT,0,0,87,0,1,1,1.8,5,u,1,0.87503,87,0,87,0,1,,,,,
,,,,,,,,,,,,,,,2,5,2020-12-15_09h32.59.862,Context_Learning_Pilot,2020.1.3,MacIntel,60,,,,,,,3,media/ddnb.png,1,Symb,l,RT,0,0,88,0,1,1,1.8,5,l,1,0.708855,88,0,88,0,1,,,,,
,,,,,,,,,,,,,,,2,5,2020-12-15_09h32.59.862,Context_Learning_Pilot,2020.1.3,MacIntel,60,,,,,,,1,media/dnnb.png,1,Symb,i,RT,0,0,89,0,1,1,1.8,5,i,1,0.66875,89,0,89,0,1,,,,,
,,,,,,,,,,,,,,,2,5,2020-12-15_09h32.59.862,Context_Learning_Pilot,2020.1.3,MacIntel,60,,,,,,,2,media/dinb.png,1,Symb,h,RT,0,0,90,0,1,1,1.8,5,u,0,0.83057,90,0,90,0,1,,,,,
,,,,,,,,,,,,,,,2,5,2020-12-15_09h32.59.862,Context_Learning_Pilot,2020.1.3,MacIntel,60,,,,,,,3,media/ddnb.png,2,Symb,i,RT,0,0,91,0,1,1,1.8,5,i,1,1.787255,91,0,91,0,1,,,,,
,,,,,,,,,,,,,,,2,5,2020-12-15_09h32.59.862,Context_Learning_Pilot,2020.1.3,MacIntel,60,,,,,,,0,media/djnb.png,2,Symb,h,RT,0,0,92,0,1,1,1.8,5,h,1,0.68757,92,0,92,0,1,,,,,
,,,,,,,,,,,,,,,2,5,2020-12-15_09h32.59.862,Context_Learning_Pilot,2020.1.3,MacIntel,60,,,,,,,2,media/dinb.png,2,Symb,u,RT,0,0,93,0,1,1,1.8,5,u,1,0.840145,93,0,93,0,1,,,,,
,,,,,,,,,,,,,,,2,5,2020-12-15_09h32.59.862,Context_Learning_Pilot,2020.1.3,MacIntel,60,,,,,,,2,media/dinb.png,1,Symb,h,RT,0,0,94,0,1,1,1.8,5,h,1,0.49264,94,0,94,0,1,,,,,
,,,,,,,,,,,,,,,2,5,2020-12-15_09h32.59.862,Context_Learning_Pilot,2020.1.3,MacIntel,60,,,,,,,0,media/djnb.png,1,Symb,u,RT,0,0,95,0,1,1,1.8,5,u,1,0.77438,95,0,95,0,1,,,,,
,,,,,,,,,,,,,,,2,5,2020-12-15_09h32.59.862,Context_Learning_Pilot,2020.1.3,MacIntel,60,,,,,,,,,,,,,,,,,,,,,,,,,,,,,0,0,0,0,1
,,,,,,,,,,,,,,,2,5,2020-12-15_09h32.59.862,Context_Learning_Pilot,2020.1.3,MacIntel,60,,,,,h,2.301125,0,media/djnb.png,1,Symb,u,RT,0,0,0,0,1,2,1.8,5,u,1,1.02892,0,0,0,0,1,,,,,
,,,,,,,,,,,,,,,2,5,2020-12-15_09h32.59.862,Context_Learning_Pilot,2020.1.3,MacIntel,60,,,,,,,0,media/djnb.png,1,Symb,u,RT,0,0,1,0,1,2,1.8,5,u,1,0.63103,1,0,1,0,1,,,,,
,,,,,,,,,,,,,,,2,5,2020-12-15_09h32.59.862,Context_Learning_Pilot,2020.1.3,MacIntel,60,,,,,,,1,media/dnnb.png,2,Symb,l,RT,0,0,2,0,1,2,1.8,5,l,1,0.621555,2,0,2,0,1,,,,,
,,,,,,,,,,,,,,,2,5,2020-12-15_09h32.59.862,Context_Learning_Pilot,2020.1.3,MacIntel,60,,,,,,,2,media/dinb.png,2,Symb,u,RT,0,0,3,0,1,2,1.8,5,u,1,0.762155,3,0,3,0,1,,,,,
,,,,,,,,,,,,,,,2,5,2020-12-15_09h32.59.862,Context_Learning_Pilot,2020.1.3,MacIntel,60,,,,,,,3,media/ddnb.png,1,Symb,l,RT,0,0,4,0,1,2,1.8,5,l,1,0.58005,4,0,4,0,1,,,,,
,,,,,,,,,,,,,,,2,5,2020-12-15_09h32.59.862,Context_Learning_Pilot,2020.1.3,MacIntel,60,,,,,,,3,media/ddnb.png,1,Symb,l,RT,0,0,5,0,1,2,1.8,5,l,1,0.515975,5,0,5,0,1,,,,,
,,,,,,,,,,,,,,,2,5,2020-12-15_09h32.59.862,Context_Learning_Pilot,2020.1.3,MacIntel,60,,,,,,,1,media/dnnb.png,2,Symb,l,RT,0,0,6,0,1,2,1.8,5,l,1,0.648725,6,0,6,0,1,,,,,
,,,,,,,,,,,,,,,2,5,2020-12-15_09h32.59.862,Context_Learning_Pilot,2020.1.3,MacIntel,60,,,,,,,1,media/dnnb.png,1,Symb,i,RT,0,0,7,0,1,2,1.8,5,i,1,0.6644,7,0,7,0,1,,,,,
,,,,,,,,,,,,,,,2,5,2020-12-15_09h32.59.862,Context_Learning_Pilot,2020.1.3,MacIntel,60,,,,,,,0,media/djnb.png,2,Symb,h,RT,0,0,8,0,1,2,1.8,5,h,1,0.715265,8,0,8,0,1,,,,,
,,,,,,,,,,,,,,,2,5,2020-12-15_09h32.59.862,Context_Learning_Pilot,2020.1.3,MacIntel,60,,,,,,,0,media/djnb.png,2,Symb,h,RT,0,0,9,0,1,2,1.8,5,h,1,0.53387,9,0,9,0,1,,,,,
,,,,,,,,,,,,,,,2,5,2020-12-15_09h32.59.862,Context_Learning_Pilot,2020.1.3,MacIntel,60,,,,,,,3,media/ddnb.png,2,Symb,i,RT,0,0,10,0,1,2,1.8,5,i,1,0.77842,10,0,10,0,1,,,,,
,,,,,,,,,,,,,,,2,5,2020-12-15_09h32.59.862,Context_Learning_Pilot,2020.1.3,MacIntel,60,,,,,,,2,media/dinb.png,1,Symb,h,RT,0,0,11,0,1,2,1.8,5,h,1,0.839925,11,0,11,0,1,,,,,
,,,,,,,,,,,,,,,2,5,2020-12-15_09h32.59.862,Context_Learning_Pilot,2020.1.3,MacIntel,60,,,,,,,2,media/dinb.png,1,Symb,h,RT,0,0,12,0,1,2,1.8,5,h,1,0.52122,12,0,12,0,1,,,,,
,,,,,,,,,,,,,,,2,5,2020-12-15_09h32.59.862,Context_Learning_Pilot,2020.1.3,MacIntel,60,,,,,,,2,media/dinb.png,2,Symb,u,RT,0,0,13,0,1,2,1.8,5,u,1,0.641625,13,0,13,0,1,,,,,
,,,,,,,,,,,,,,,2,5,2020-12-15_09h32.59.862,Context_Learning_Pilot,2020.1.3,MacIntel,60,,,,,,,3,media/ddnb.png,2,Symb,i,RT,0,0,14,0,1,2,1.8,5,i,1,0.6674,14,0,14,0,1,,,,,
,,,,,,,,,,,,,,,2,5,2020-12-15_09h32.59.862,Context_Learning_Pilot,2020.1.3,MacIntel,60,,,,,,,1,media/dnnb.png,1,Symb,i,RT,0,0,15,0,1,2,1.8,5,i,1,1.04641,15,0,15,0,1,,,,,
,,,,,,,,,,,,,,,2,5,2020-12-15_09h32.59.862,Context_Learning_Pilot,2020.1.3,MacIntel,60,,,,,,,0,media/djnb.png,1,Symb,u,RT,0,0,16,0,1,2,1.8,5,u,1,0.88428,16,0,16,0,1,,,,,
,,,,,,,,,,,,,,,2,5,2020-12-15_09h32.59.862,Context_Learning_Pilot,2020.1.3,MacIntel,60,,,,,,,0,media/djnb.png,2,Symb,h,RT,0,0,17,0,1,2,1.8,5,h,1,0.62074,17,0,17,0,1,,,,,
,,,,,,,,,,,,,,,2,5,2020-12-15_09h32.59.862,Context_Learning_Pilot,2020.1.3,MacIntel,60,,,,,,,2,media/dinb.png,1,Symb,h,RT,0,0,18,0,1,2,1.8,5,h,1,0.746465,18,0,18,0,1,,,,,
,,,,,,,,,,,,,,,2,5,2020-12-15_09h32.59.862,Context_Learning_Pilot,2020.1.3,MacIntel,60,,,,,,,1,media/dnnb.png,1,Symb,i,RT,0,0,19,0,1,2,1.8,5,i,1,0.92701,19,0,19,0,1,,,,,
,,,,,,,,,,,,,,,2,5,2020-12-15_09h32.59.862,Context_Learning_Pilot,2020.1.3,MacIntel,60,,,,,,,1,media/dnnb.png,2,Symb,l,RT,0,0,20,0,1,2,1.8,5,l,1,0.62384,20,0,20,0,1,,,,,
,,,,,,,,,,,,,,,2,5,2020-12-15_09h32.59.862,Context_Learning_Pilot,2020.1.3,MacIntel,60,,,,,,,1,media/dnnb.png,2,Symb,l,RT,0,0,21,0,1,2,1.8,5,l,1,0.554195,21,0,21,0,1,,,,,
,,,,,,,,,,,,,,,2,5,2020-12-15_09h32.59.862,Context_Learning_Pilot,2020.1.3,MacIntel,60,,,,,,,3,media/ddnb.png,2,Symb,i,RT,0,0,22,0,1,2,1.8,5,i,1,1.489425,22,0,22,0,1,,,,,
,,,,,,,,,,,,,,,2,5,2020-12-15_09h32.59.862,Context_Learning_Pilot,2020.1.3,MacIntel,60,,,,,,,3,media/ddnb.png,1,Symb,l,RT,0,0,23,0,1,2,1.8,5,l,1,0.63063,23,0,23,0,1,,,,,
,,,,,,,,,,,,,,,2,5,2020-12-15_09h32.59.862,Context_Learning_Pilot,2020.1.3,MacIntel,60,,,,,,,0,media/djnb.png,1,Symb,u,RT,0,0,24,0,1,2,1.8,5,u,1,0.950465,24,0,24,0,1,,,,,
,,,,,,,,,,,,,,,2,5,2020-12-15_09h32.59.862,Context_Learning_Pilot,2020.1.3,MacIntel,60,,,,,,,3,media/ddnb.png,1,Symb,l,RT,0,0,25,0,1,2,1.8,5,l,1,0.922575,25,0,25,0,1,,,,,
,,,,,,,,,,,,,,,2,5,2020-12-15_09h32.59.862,Context_Learning_Pilot,2020.1.3,MacIntel,60,,,,,,,2,media/dinb.png,2,Symb,u,RT,0,0,26,0,1,2,1.8,5,h,0,0.62064,26,0,26,0,1,,,,,
,,,,,,,,,,,,,,,2,5,2020-12-15_09h32.59.862,Context_Learning_Pilot,2020.1.3,MacIntel,60,,,,,,,2,media/dinb.png,1,Symb,h,RT,0,0,27,0,1,2,1.8,5,h,1,0.893285,27,0,27,0,1,,,,,
,,,,,,,,,,,,,,,2,5,2020-12-15_09h32.59.862,Context_Learning_Pilot,2020.1.3,MacIntel,60,,,,,,,0,media/djnb.png,2,Symb,h,RT,0,0,28,0,1,2,1.8,5,h,1,0.72857,28,0,28,0,1,,,,,
,,,,,,,,,,,,,,,2,5,2020-12-15_09h32.59.862,Context_Learning_Pilot,2020.1.3,MacIntel,60,,,,,,,2,media/dinb.png,2,Symb,u,RT,0,0,29,0,1,2,1.8,5,u,1,1.398485,29,0,29,0,1,,,,,
,,,,,,,,,,,,,,,2,5,2020-12-15_09h32.59.862,Context_Learning_Pilot,2020.1.3,MacIntel,60,,,,,,,1,media/dnnb.png,1,Symb,i,RT,0,0,30,0,1,2,1.8,5,i,1,0.936,30,0,30,0,1,,,,,
,,,,,,,,,,,,,,,2,5,2020-12-15_09h32.59.862,Context_Learning_Pilot,2020.1.3,MacIntel,60,,,,,,,3,media/ddnb.png,2,Symb,i,RT,0,0,31,0,1,2,1.8,5,i,1,0.757005,31,0,31,0,1,,,,,
,,,,,,,,,,,,,,,2,5,2020-12-15_09h32.59.862,Context_Learning_Pilot,2020.1.3,MacIntel,60,,,,,,,0,media/djnb.png,1,Symb,u,RT,0,0,32,0,1,2,1.8,5,u,1,0.68753,32,0,32,0,1,,,,,
,,,,,,,,,,,,,,,2,5,2020-12-15_09h32.59.862,Context_Learning_Pilot,2020.1.3,MacIntel,60,,,,,,,3,media/ddnb.png,1,Symb,l,RT,0,0,33,0,1,2,1.8,5,l,1,0.684915,33,0,33,0,1,,,,,
,,,,,,,,,,,,,,,2,5,2020-12-15_09h32.59.862,Context_Learning_Pilot,2020.1.3,MacIntel,60,,,,,,,1,media/dnnb.png,1,Symb,i,RT,0,0,34,0,1,2,1.8,5,i,1,0.61311,34,0,34,0,1,,,,,
,,,,,,,,,,,,,,,2,5,2020-12-15_09h32.59.862,Context_Learning_Pilot,2020.1.3,MacIntel,60,,,,,,,3,media/ddnb.png,2,Symb,i,RT,0,0,35,0,1,2,1.8,5,i,1,0.6609,35,0,35,0,1,,,,,
,,,,,,,,,,,,,,,2,5,2020-12-15_09h32.59.862,Context_Learning_Pilot,2020.1.3,MacIntel,60,,,,,,,3,media/ddnb.png,1,Symb,l,RT,0,0,36,0,1,2,1.8,5,l,1,0.6422,36,0,36,0,1,,,,,
,,,,,,,,,,,,,,,2,5,2020-12-15_09h32.59.862,Context_Learning_Pilot,2020.1.3,MacIntel,60,,,,,,,1,media/dnnb.png,2,Symb,l,RT,0,0,37,0,1,2,1.8,5,i,0,0.88592,37,0,37,0,1,,,,,
,,,,,,,,,,,,,,,2,5,2020-12-15_09h32.59.862,Context_Learning_Pilot,2020.1.3,MacIntel,60,,,,,,,2,media/dinb.png,1,Symb,h,RT,0,0,38,0,1,2,1.8,5,h,1,0.63911,38,0,38,0,1,,,,,
,,,,,,,,,,,,,,,2,5,2020-12-15_09h32.59.862,Context_Learning_Pilot,2020.1.3,MacIntel,60,,,,,,,3,media/ddnb.png,2,Symb,i,RT,0,0,39,0,1,2,1.8,5,i,1,0.686895,39,0,39,0,1,,,,,
,,,,,,,,,,,,,,,2,5,2020-12-15_09h32.59.862,Context_Learning_Pilot,2020.1.3,MacIntel,60,,,,,,,0,media/djnb.png,2,Symb,h,RT,0,0,40,0,1,2,1.8,5,u,0,0.799135,40,0,40,0,1,,,,,
,,,,,,,,,,,,,,,2,5,2020-12-15_09h32.59.862,Context_Learning_Pilot,2020.1.3,MacIntel,60,,,,,,,1,media/dnnb.png,2,Symb,l,RT,0,0,41,0,1,2,1.8,5,l,1,0.69621,41,0,41,0,1,,,,,
,,,,,,,,,,,,,,,2,5,2020-12-15_09h32.59.862,Context_Learning_Pilot,2020.1.3,MacIntel,60,,,,,,,2,media/dinb.png,2,Symb,u,RT,0,0,42,0,1,2,1.8,5,u,1,0.740975,42,0,42,0,1,,,,,
,,,,,,,,,,,,,,,2,5,2020-12-15_09h32.59.862,Context_Learning_Pilot,2020.1.3,MacIntel,60,,,,,,,2,media/dinb.png,1,Symb,h,RT,0,0,43,0,1,2,1.8,5,h,1,0.653375,43,0,43,0,1,,,,,
,,,,,,,,,,,,,,,2,5,2020-12-15_09h32.59.862,Context_Learning_Pilot,2020.1.3,MacIntel,60,,,,,,,0,media/djnb.png,2,Symb,h,RT,0,0,44,0,1,2,1.8,5,h,1,1.0028,44,0,44,0,1,,,,,
,,,,,,,,,,,,,,,2,5,2020-12-15_09h32.59.862,Context_Learning_Pilot,2020.1.3,MacIntel,60,,,,,,,0,media/djnb.png,1,Symb,u,RT,0,0,45,0,1,2,1.8,5,u,1,0.629805,45,0,45,0,1,,,,,
,,,,,,,,,,,,,,,2,5,2020-12-15_09h32.59.862,Context_Learning_Pilot,2020.1.3,MacIntel,60,,,,,,,2,media/dinb.png,2,Symb,u,RT,0,0,46,0,1,2,1.8,5,u,1,0.838665,46,0,46,0,1,,,,,
,,,,,,,,,,,,,,,2,5,2020-12-15_09h32.59.862,Context_Learning_Pilot,2020.1.3,MacIntel,60,,,,,,,1,media/dnnb.png,1,Symb,i,RT,0,0,47,0,1,2,1.8,5,i,1,0.904785,47,0,47,0,1,,,,,
,,,,,,,,,,,,,,,2,5,2020-12-15_09h32.59.862,Context_Learning_Pilot,2020.1.3,MacIntel,60,,,,,,,2,media/dinb.png,2,Symb,u,RT,0,0,48,0,1,2,1.8,5,u,1,0.950635,48,0,48,0,1,,,,,
,,,,,,,,,,,,,,,2,5,2020-12-15_09h32.59.862,Context_Learning_Pilot,2020.1.3,MacIntel,60,,,,,,,3,media/ddnb.png,1,Symb,l,RT,0,0,49,0,1,2,1.8,5,i,0,0.96003,49,0,49,0,1,,,,,
,,,,,,,,,,,,,,,2,5,2020-12-15_09h32.59.862,Context_Learning_Pilot,2020.1.3,MacIntel,60,,,,,,,1,media/dnnb.png,2,Symb,l,RT,0,0,50,0,1,2,1.8,5,l,1,0.83076,50,0,50,0,1,,,,,
,,,,,,,,,,,,,,,2,5,2020-12-15_09h32.59.862,Context_Learning_Pilot,2020.1.3,MacIntel,60,,,,,,,1,media/dnnb.png,2,Symb,l,RT,0,0,51,0,1,2,1.8,5,l,1,0.570785,51,0,51,0,1,,,,,
,,,,,,,,,,,,,,,2,5,2020-12-15_09h32.59.862,Context_Learning_Pilot,2020.1.3,MacIntel,60,,,,,,,2,media/dinb.png,1,Symb,h,RT,0,0,52,0,1,2,1.8,5,h,1,0.71541,52,0,52,0,1,,,,,
,,,,,,,,,,,,,,,2,5,2020-12-15_09h32.59.862,Context_Learning_Pilot,2020.1.3,MacIntel,60,,,,,,,0,media/djnb.png,1,Symb,u,RT,0,0,53,0,1,2,1.8,5,u,1,0.78614,53,0,53,0,1,,,,,
,,,,,,,,,,,,,,,2,5,2020-12-15_09h32.59.862,Context_Learning_Pilot,2020.1.3,MacIntel,60,,,,,,,2,media/dinb.png,1,Symb,h,RT,0,0,54,0,1,2,1.8,5,h,1,0.91748,54,0,54,0,1,,,,,
,,,,,,,,,,,,,,,2,5,2020-12-15_09h32.59.862,Context_Learning_Pilot,2020.1.3,MacIntel,60,,,,,,,3,media/ddnb.png,1,Symb,l,RT,0,0,55,0,1,2,1.8,5,l,1,0.87209,55,0,55,0,1,,,,,
,,,,,,,,,,,,,,,2,5,2020-12-15_09h32.59.862,Context_Learning_Pilot,2020.1.3,MacIntel,60,,,,,,,3,media/ddnb.png,2,Symb,i,RT,0,0,56,0,1,2,1.8,5,i,1,0.624985,56,0,56,0,1,,,,,
,,,,,,,,,,,,,,,2,5,2020-12-15_09h32.59.862,Context_Learning_Pilot,2020.1.3,MacIntel,60,,,,,,,0,media/djnb.png,2,Symb,h,RT,0,0,57,0,1,2,1.8,5,h,1,0.70903,57,0,57,0,1,,,,,
,,,,,,,,,,,,,,,2,5,2020-12-15_09h32.59.862,Context_Learning_Pilot,2020.1.3,MacIntel,60,,,,,,,1,media/dnnb.png,1,Symb,i,RT,0,0,58,0,1,2,1.8,5,i,1,0.8881,58,0,58,0,1,,,,,
,,,,,,,,,,,,,,,2,5,2020-12-15_09h32.59.862,Context_Learning_Pilot,2020.1.3,MacIntel,60,,,,,,,3,media/ddnb.png,2,Symb,i,RT,0,0,59,0,1,2,1.8,5,i,1,1.360655,59,0,59,0,1,,,,,
,,,,,,,,,,,,,,,2,5,2020-12-15_09h32.59.862,Context_Learning_Pilot,2020.1.3,MacIntel,60,,,,,,,0,media/djnb.png,2,Symb,h,RT,0,0,60,0,1,2,1.8,5,h,1,1.410795,60,0,60,0,1,,,,,
,,,,,,,,,,,,,,,2,5,2020-12-15_09h32.59.862,Context_Learning_Pilot,2020.1.3,MacIntel,60,,,,,,,2,media/dinb.png,2,Symb,u,RT,0,0,61,0,1,2,1.8,5,u,1,0.76513,61,0,61,0,1,,,,,
,,,,,,,,,,,,,,,2,5,2020-12-15_09h32.59.862,Context_Learning_Pilot,2020.1.3,MacIntel,60,,,,,,,0,media/djnb.png,1,Symb,u,RT,0,0,62,0,1,2,1.8,5,u,1,0.950665,62,0,62,0,1,,,,,
,,,,,,,,,,,,,,,2,5,2020-12-15_09h32.59.862,Context_Learning_Pilot,2020.1.3,MacIntel,60,,,,,,,1,media/dnnb.png,1,Symb,i,RT,0,0,63,0,1,2,1.8,5,l,0,1.18384,63,0,63,0,1,,,,,
,,,,,,,,,,,,,,,2,5,2020-12-15_09h32.59.862,Context_Learning_Pilot,2020.1.3,MacIntel,60,,,,,,,1,media/dnnb.png,1,Symb,i,RT,0,0,64,0,1,2,1.8,5,i,1,0.70139,64,0,64,0,1,,,,,
,,,,,,,,,,,,,,,2,5,2020-12-15_09h32.59.862,Context_Learning_Pilot,2020.1.3,MacIntel,60,,,,,,,3,media/ddnb.png,2,Symb,i,RT,0,0,65,0,1,2,1.8,5,i,1,0.702655,65,0,65,0,1,,,,,
,,,,,,,,,,,,,,,2,5,2020-12-15_09h32.59.862,Context_Learning_Pilot,2020.1.3,MacIntel,60,,,,,,,3,media/ddnb.png,1,Symb,l,RT,0,0,66,0,1,2,1.8,5,l,1,0.653645,66,0,66,0,1,,,,,
,,,,,,,,,,,,,,,2,5,2020-12-15_09h32.59.862,Context_Learning_Pilot,2020.1.3,MacIntel,60,,,,,,,1,media/dnnb.png,1,Symb,i,RT,0,0,67,0,1,2,1.8,5,i,1,1.1548,67,0,67,0,1,,,,,
,,,,,,,,,,,,,,,2,5,2020-12-15_09h32.59.862,Context_Learning_Pilot,2020.1.3,MacIntel,60,,,,,,,2,media/dinb.png,1,Symb,h,RT,0,0,68,0,1,2,1.8,5,u,0,0.84035,68,0,68,0,1,,,,,
,,,,,,,,,,,,,,,2,5,2020-12-15_09h32.59.862,Context_Learning_Pilot,2020.1.3,MacIntel,60,,,,,,,1,media/dnnb.png,2,Symb,l,RT,0,0,69,0,1,2,1.8,5,l,1,0.739895,69,0,69,0,1,,,,,
,,,,,,,,,,,,,,,2,5,2020-12-15_09h32.59.862,Context_Learning_Pilot,2020.1.3,MacIntel,60,,,,,,,2,media/dinb.png,2,Symb,u,RT,0,0,70,0,1,2,1.8,5,u,1,0.74428,70,0,70,0,1,,,,,
,,,,,,,,,,,,,,,2,5,2020-12-15_09h32.59.862,Context_Learning_Pilot,2020.1.3,MacIntel,60,,,,,,,2,media/dinb.png,1,Symb,h,RT,0,0,71,0,1,2,1.8,5,h,1,0.63876,71,0,71,0,1,,,,,
,,,,,,,,,,,,,,,2,5,2020-12-15_09h32.59.862,Context_Learning_Pilot,2020.1.3,MacIntel,60,,,,,,,0,media/djnb.png,2,Symb,h,RT,0,0,72,0,1,2,1.8,5,h,1,0.840895,72,0,72,0,1,,,,,
,,,,,,,,,,,,,,,2,5,2020-12-15_09h32.59.862,Context_Learning_Pilot,2020.1.3,MacIntel,60,,,,,,,0,media/djnb.png,1,Symb,u,RT,0,0,73,0,1,2,1.8,5,u,1,0.93027,73,0,73,0,1,,,,,
,,,,,,,,,,,,,,,2,5,2020-12-15_09h32.59.862,Context_Learning_Pilot,2020.1.3,MacIntel,60,,,,,,,2,media/dinb.png,2,Symb,u,RT,0,0,74,0,1,2,1.8,5,u,1,0.756355,74,0,74,0,1,,,,,
,,,,,,,,,,,,,,,2,5,2020-12-15_09h32.59.862,Context_Learning_Pilot,2020.1.3,MacIntel,60,,,,,,,1,media/dnnb.png,2,Symb,l,RT,0,0,75,0,1,2,1.8,5,l,1,0.6492,75,0,75,0,1,,,,,
,,,,,,,,,,,,,,,2,5,2020-12-15_09h32.59.862,Context_Learning_Pilot,2020.1.3,MacIntel,60,,,,,,,0,media/djnb.png,1,Symb,u,RT,0,0,76,0,1,2,1.8,5,u,1,0.857665,76,0,76,0,1,,,,,
,,,,,,,,,,,,,,,2,5,2020-12-15_09h32.59.862,Context_Learning_Pilot,2020.1.3,MacIntel,60,,,,,,,0,media/djnb.png,2,Symb,h,RT,0,0,77,0,1,2,1.8,5,h,1,1.125255,77,0,77,0,1,,,,,
,,,,,,,,,,,,,,,2,5,2020-12-15_09h32.59.862,Context_Learning_Pilot,2020.1.3,MacIntel,60,,,,,,,3,media/ddnb.png,1,Symb,l,RT,0,0,78,0,1,2,1.8,5,l,1,0.712235,78,0,78,0,1,,,,,
,,,,,,,,,,,,,,,2,5,2020-12-15_09h32.59.862,Context_Learning_Pilot,2020.1.3,MacIntel,60,,,,,,,3,media/ddnb.png,2,Symb,i,RT,0,0,79,0,1,2,1.8,5,i,1,0.961375,79,0,79,0,1,,,,,
,,,,,,,,,,,,,,,2,5,2020-12-15_09h32.59.862,Context_Learning_Pilot,2020.1.3,MacIntel,60,,,,,,,3,media/ddnb.png,2,Symb,i,RT,0,0,80,0,1,2,1.8,5,i,1,0.46543,80,0,80,0,1,,,,,
,,,,,,,,,,,,,,,2,5,2020-12-15_09h32.59.862,Context_Learning_Pilot,2020.1.3,MacIntel,60,,,,,,,0,media/djnb.png,1,Symb,u,RT,0,0,81,0,1,2,1.8,5,u,1,0.79342,81,0,81,0,1,,,,,
,,,,,,,,,,,,,,,2,5,2020-12-15_09h32.59.862,Context_Learning_Pilot,2020.1.3,MacIntel,60,,,,,,,0,media/djnb.png,2,Symb,h,RT,0,0,82,0,1,2,1.8,5,u,0,0.530375,82,0,82,0,1,,,,,
,,,,,,,,,,,,,,,2,5,2020-12-15_09h32.59.862,Context_Learning_Pilot,2020.1.3,MacIntel,60,,,,,,,3,media/ddnb.png,2,Symb,i,RT,0,0,83,0,1,2,1.8,5,i,1,0.623335,83,0,83,0,1,,,,,
,,,,,,,,,,,,,,,2,5,2020-12-15_09h32.59.862,Context_Learning_Pilot,2020.1.3,MacIntel,60,,,,,,,0,media/djnb.png,1,Symb,u,RT,0,0,84,0,1,2,1.8,5,u,1,0.8886,84,0,84,0,1,,,,,
,,,,,,,,,,,,,,,2,5,2020-12-15_09h32.59.862,Context_Learning_Pilot,2020.1.3,MacIntel,60,,,,,,,2,media/dinb.png,2,Symb,u,RT,0,0,85,0,1,2,1.8,5,u,1,0.760775,85,0,85,0,1,,,,,
,,,,,,,,,,,,,,,2,5,2020-12-15_09h32.59.862,Context_Learning_Pilot,2020.1.3,MacIntel,60,,,,,,,2,media/dinb.png,1,Symb,h,RT,0,0,86,0,1,2,1.8,5,h,1,0.65747,86,0,86,0,1,,,,,
,,,,,,,,,,,,,,,2,5,2020-12-15_09h32.59.862,Context_Learning_Pilot,2020.1.3,MacIntel,60,,,,,,,1,media/dnnb.png,2,Symb,l,RT,0,0,87,0,1,2,1.8,5,l,1,0.649515,87,0,87,0,1,,,,,
,,,,,,,,,,,,,,,2,5,2020-12-15_09h32.59.862,Context_Learning_Pilot,2020.1.3,MacIntel,60,,,,,,,2,media/dinb.png,1,Symb,h,RT,0,0,88,0,1,2,1.8,5,h,1,0.71505,88,0,88,0,1,,,,,
,,,,,,,,,,,,,,,2,5,2020-12-15_09h32.59.862,Context_Learning_Pilot,2020.1.3,MacIntel,60,,,,,,,1,media/dnnb.png,1,Symb,i,RT,0,0,89,0,1,2,1.8,5,i,1,1.06814,89,0,89,0,1,,,,,
,,,,,,,,,,,,,,,2,5,2020-12-15_09h32.59.862,Context_Learning_Pilot,2020.1.3,MacIntel,60,,,,,,,2,media/dinb.png,2,Symb,u,RT,0,0,90,0,1,2,1.8,5,u,1,0.952505,90,0,90,0,1,,,,,
,,,,,,,,,,,,,,,2,5,2020-12-15_09h32.59.862,Context_Learning_Pilot,2020.1.3,MacIntel,60,,,,,,,1,media/dnnb.png,2,Symb,l,RT,0,0,91,0,1,2,1.8,5,l,1,0.82664,91,0,91,0,1,,,,,
,,,,,,,,,,,,,,,2,5,2020-12-15_09h32.59.862,Context_Learning_Pilot,2020.1.3,MacIntel,60,,,,,,,3,media/ddnb.png,1,Symb,l,RT,0,0,92,0,1,2,1.8,5,l,1,0.85001,92,0,92,0,1,,,,,
,,,,,,,,,,,,,,,2,5,2020-12-15_09h32.59.862,Context_Learning_Pilot,2020.1.3,MacIntel,60,,,,,,,0,media/djnb.png,2,Symb,h,RT,0,0,93,0,1,2,1.8,5,h,1,0.85413,93,0,93,0,1,,,,,
,,,,,,,,,,,,,,,2,5,2020-12-15_09h32.59.862,Context_Learning_Pilot,2020.1.3,MacIntel,60,,,,,,,1,media/dnnb.png,1,Symb,i,RT,0,0,94,0,1,2,1.8,5,i,1,0.733215,94,0,94,0,1,,,,,
,,,,,,,,,,,,,,,2,5,2020-12-15_09h32.59.862,Context_Learning_Pilot,2020.1.3,MacIntel,60,,,,,,,3,media/ddnb.png,1,Symb,l,RT,0,0,95,0,1,2,1.8,5,l,1,0.72798,95,0,95,0,1,,,,,
,,,,,,,,,,,,,,,2,5,2020-12-15_09h32.59.862,Context_Learning_Pilot,2020.1.3,MacIntel,60,,,,,,,,,,,,,,,,,,,,,,,,,,,,,1,0,1,0,1
,,,,,,,,,,,,,,,2,5,2020-12-15_09h32.59.862,Context_Learning_Pilot,2020.1.3,MacIntel,60,,,,,u,0.89671,3,media/ddnb.png,1,Symb,l,RT,0,0,0,0,1,3,1.8,5,l,1,1.065115,0,0,0,0,1,,,,,
,,,,,,,,,,,,,,,2,5,2020-12-15_09h32.59.862,Context_Learning_Pilot,2020.1.3,MacIntel,60,,,,,,,2,media/dinb.png,2,Symb,u,RT,0,0,1,0,1,3,1.8,5,u,1,0.72259,1,0,1,0,1,,,,,
,,,,,,,,,,,,,,,2,5,2020-12-15_09h32.59.862,Context_Learning_Pilot,2020.1.3,MacIntel,60,,,,,,,2,media/dinb.png,1,Symb,h,RT,0,0,2,0,1,3,1.8,5,h,1,0.653085,2,0,2,0,1,,,,,
,,,,,,,,,,,,,,,2,5,2020-12-15_09h32.59.862,Context_Learning_Pilot,2020.1.3,MacIntel,60,,,,,,,1,media/dnnb.png,2,Symb,l,RT,0,0,3,0,1,3,1.8,5,l,1,0.571435,3,0,3,0,1,,,,,
,,,,,,,,,,,,,,,2,5,2020-12-15_09h32.59.862,Context_Learning_Pilot,2020.1.3,MacIntel,60,,,,,,,2,media/dinb.png,1,Symb,h,RT,0,0,4,0,1,3,1.8,5,h,1,0.59548,4,0,4,0,1,,,,,
,,,,,,,,,,,,,,,2,5,2020-12-15_09h32.59.862,Context_Learning_Pilot,2020.1.3,MacIntel,60,,,,,,,3,media/ddnb.png,2,Symb,i,RT,0,0,5,0,1,3,1.8,5,i,1,0.676965,5,0,5,0,1,,,,,
,,,,,,,,,,,,,,,2,5,2020-12-15_09h32.59.862,Context_Learning_Pilot,2020.1.3,MacIntel,60,,,,,,,2,media/dinb.png,2,Symb,u,RT,0,0,6,0,1,3,1.8,5,u,1,0.953645,6,0,6,0,1,,,,,
,,,,,,,,,,,,,,,2,5,2020-12-15_09h32.59.862,Context_Learning_Pilot,2020.1.3,MacIntel,60,,,,,,,0,media/djnb.png,2,Symb,h,RT,0,0,7,0,1,3,1.8,5,h,1,0.65052,7,0,7,0,1,,,,,
,,,,,,,,,,,,,,,2,5,2020-12-15_09h32.59.862,Context_Learning_Pilot,2020.1.3,MacIntel,60,,,,,,,3,media/ddnb.png,1,Symb,l,RT,0,0,8,0,1,3,1.8,5,l,1,0.72027,8,0,8,0,1,,,,,
,,,,,,,,,,,,,,,2,5,2020-12-15_09h32.59.862,Context_Learning_Pilot,2020.1.3,MacIntel,60,,,,,,,3,media/ddnb.png,2,Symb,i,RT,0,0,9,0,1,3,1.8,5,i,1,0.65507,9,0,9,0,1,,,,,
,,,,,,,,,,,,,,,2,5,2020-12-15_09h32.59.862,Context_Learning_Pilot,2020.1.3,MacIntel,60,,,,,,,0,media/djnb.png,1,Symb,u,RT,0,0,10,0,1,3,1.8,5,u,1,0.740595,10,0,10,0,1,,,,,
,,,,,,,,,,,,,,,2,5,2020-12-15_09h32.59.862,Context_Learning_Pilot,2020.1.3,MacIntel,60,,,,,,,0,media/djnb.png,1,Symb,u,RT,0,0,11,0,1,3,1.8,5,u,1,1.00407,11,0,11,0,1,,,,,
,,,,,,,,,,,,,,,2,5,2020-12-15_09h32.59.862,Context_Learning_Pilot,2020.1.3,MacIntel,60,,,,,,,1,media/dnnb.png,1,Symb,i,RT,0,0,12,0,1,3,1.8,5,i,1,0.628935,12,0,12,0,1,,,,,
,,,,,,,,,,,,,,,2,5,2020-12-15_09h32.59.862,Context_Learning_Pilot,2020.1.3,MacIntel,60,,,,,,,1,media/dnnb.png,1,Symb,i,RT,0,0,13,0,1,3,1.8,5,i,1,0.56839,13,0,13,0,1,,,,,
,,,,,,,,,,,,,,,2,5,2020-12-15_09h32.59.862,Context_Learning_Pilot,2020.1.3,MacIntel,60,,,,,,,1,media/dnnb.png,2,Symb,l,RT,0,0,14,0,1,3,1.8,5,l,1,0.68207,14,0,14,0,1,,,,,
,,,,,,,,,,,,,,,2,5,2020-12-15_09h32.59.862,Context_Learning_Pilot,2020.1.3,MacIntel,60,,,,,,,0,media/djnb.png,2,Symb,h,RT,0,0,15,0,1,3,1.8,5,u,0,1.02605,15,0,15,0,1,,,,,
,,,,,,,,,,,,,,,2,5,2020-12-15_09h32.59.862,Context_Learning_Pilot,2020.1.3,MacIntel,60,,,,,,,1,media/dnnb.png,1,Symb,i,RT,0,0,16,0,1,3,1.8,5,i,1,0.79362,16,0,16,0,1,,,,,
,,,,,,,,,,,,,,,2,5,2020-12-15_09h32.59.862,Context_Learning_Pilot,2020.1.3,MacIntel,60,,,,,,,0,media/djnb.png,2,Symb,h,RT,0,0,17,0,1,3,1.8,5,u,0,1.03078,17,0,17,0,1,,,,,
,,,,,,,,,,,,,,,2,5,2020-12-15_09h32.59.862,Context_Learning_Pilot,2020.1.3,MacIntel,60,,,,,,,1,media/dnnb.png,2,Symb,l,RT,0,0,18,0,1,3,1.8,5,l,1,0.73032,18,0,18,0,1,,,,,
,,,,,,,,,,,,,,,2,5,2020-12-15_09h32.59.862,Context_Learning_Pilot,2020.1.3,MacIntel,60,,,,,,,0,media/djnb.png,1,Symb,u,RT,0,0,19,0,1,3,1.8,5,u,1,2.09661,19,0,19,0,1,,,,,
,,,,,,,,,,,,,,,2,5,2020-12-15_09h32.59.862,Context_Learning_Pilot,2020.1.3,MacIntel,60,,,,,,,1,media/dnnb.png,1,Symb,i,RT,0,0,20,0,1,3,1.8,5,i,1,0.6646,20,0,20,0,1,,,,,
,,,,,,,,,,,,,,,2,5,2020-12-15_09h32.59.862,Context_Learning_Pilot,2020.1.3,MacIntel,60,,,,,,,1,media/dnnb.png,2,Symb,l,RT,0,0,21,0,1,3,1.8,5,l,1,0.74505,21,0,21,0,1,,,,,
,,,,,,,,,,,,,,,2,5,2020-12-15_09h32.59.862,Context_Learning_Pilot,2020.1.3,MacIntel,60,,,,,,,3,media/ddnb.png,1,Symb,l,RT,0,0,22,0,1,3,1.8,5,l,1,0.777605,22,0,22,0,1,,,,,
,,,,,,,,,,,,,,,2,5,2020-12-15_09h32.59.862,Context_Learning_Pilot,2020.1.3,MacIntel,60,,,,,,,2,media/dinb.png,1,Symb,h,RT,0,0,23,0,1,3,1.8,5,h,1,0.848385,23,0,23,0,1,,,,,
,,,,,,,,,,,,,,,2,5,2020-12-15_09h32.59.862,Context_Learning_Pilot,2020.1.3,MacIntel,60,,,,,,,3,media/ddnb.png,2,Symb,i,RT,0,0,24,0,1,3,1.8,5,i,1,0.71497,24,0,24,0,1,,,,,
,,,,,,,,,,,,,,,2,5,2020-12-15_09h32.59.862,Context_Learning_Pilot,2020.1.3,MacIntel,60,,,,,,,3,media/ddnb.png,2,Symb,i,RT,0,0,25,0,1,3,1.8,5,i,1,0.581845,25,0,25,0,1,,,,,
,,,,,,,,,,,,,,,2,5,2020-12-15_09h32.59.862,Context_Learning_Pilot,2020.1.3,MacIntel,60,,,,,,,0,media/djnb.png,1,Symb,u,RT,0,0,26,0,1,3,1.8,5,u,1,0.805285,26,0,26,0,1,,,,,
,,,,,,,,,,,,,,,2,5,2020-12-15_09h32.59.862,Context_Learning_Pilot,2020.1.3,MacIntel,60,,,,,,,2,media/dinb.png,2,Symb,u,RT,0,0,27,0,1,3,1.8,5,u,1,1.856915,27,0,27,0,1,,,,,
,,,,,,,,,,,,,,,2,5,2020-12-15_09h32.59.862,Context_Learning_Pilot,2020.1.3,MacIntel,60,,,,,,,2,media/dinb.png,1,Symb,h,RT,0,0,28,0,1,3,1.8,5,h,1,0.70843,28,0,28,0,1,,,,,
,,,,,,,,,,,,,,,2,5,2020-12-15_09h32.59.862,Context_Learning_Pilot,2020.1.3,MacIntel,60,,,,,,,2,media/dinb.png,2,Symb,u,RT,0,0,29,0,1,3,1.8,5,u,1,0.89059,29,0,29,0,1,,,,,
,,,,,,,,,,,,,,,2,5,2020-12-15_09h32.59.862,Context_Learning_Pilot,2020.1.3,MacIntel,60,,,,,,,3,media/ddnb.png,1,Symb,l,RT,0,0,30,0,1,3,1.8,5,l,1,0.790525,30,0,30,0,1,,,,,
,,,,,,,,,,,,,,,2,5,2020-12-15_09h32.59.862,Context_Learning_Pilot,2020.1.3,MacIntel,60,,,,,,,0,media/djnb.png,2,Symb,h,RT,0,0,31,0,1,3,1.8,5,h,1,1.05294,31,0,31,0,1,,,,,
,,,,,,,,,,,,,,,2,5,2020-12-15_09h32.59.862,Context_Learning_Pilot,2020.1.3,MacIntel,60,,,,,,,0,media/djnb.png,2,Symb,h,RT,0,0,32,0,1,3,1.8,5,h,1,0.51926,32,0,32,0,1,,,,,
,,,,,,,,,,,,,,,2,5,2020-12-15_09h32.59.862,Context_Learning_Pilot,2020.1.3,MacIntel,60,,,,,,,1,media/dnnb.png,1,Symb,i,RT,0,0,33,0,1,3,1.8,5,i,1,0.862925,33,0,33,0,1,,,,,
,,,,,,,,,,,,,,,2,5,2020-12-15_09h32.59.862,Context_Learning_Pilot,2020.1.3,MacIntel,60,,,,,,,1,media/dnnb.png,2,Symb,l,RT,0,0,34,0,1,3,1.8,5,l,1,0.76632,34,0,34,0,1,,,,,
,,,,,,,,,,,,,,,2,5,2020-12-15_09h32.59.862,Context_Learning_Pilot,2020.1.3,MacIntel,60,,,,,,,0,media/djnb.png,1,Symb,u,RT,0,0,35,0,1,3,1.8,5,u,1,0.636745,35,0,35,0,1,,,,,
,,,,,,,,,,,,,,,2,5,2020-12-15_09h32.59.862,Context_Learning_Pilot,2020.1.3,MacIntel,60,,,,,,,3,media/ddnb.png,1,Symb,l,RT,0,0,36,0,1,3,1.8,5,l,1,1.07916,36,0,36,0,1,,,,,
,,,,,,,,,,,,,,,2,5,2020-12-15_09h32.59.862,Context_Learning_Pilot,2020.1.3,MacIntel,60,,,,,,,3,media/ddnb.png,2,Symb,i,RT,0,0,37,0,1,3,1.8,5,i,1,0.68543,37,0,37,0,1,,,,,
,,,,,,,,,,,,,,,2,5,2020-12-15_09h32.59.862,Context_Learning_Pilot,2020.1.3,MacIntel,60,,,,,,,2,media/dinb.png,1,Symb,h,RT,0,0,38,0,1,3,1.8,5,h,1,0.654235,38,0,38,0,1,,,,,
,,,,,,,,,,,,,,,2,5,2020-12-15_09h32.59.862,Context_Learning_Pilot,2020.1.3,MacIntel,60,,,,,,,1,media/dnnb.png,2,Symb,l,RT,0,0,39,0,1,3,1.8,5,l,1,0.87106,39,0,39,0,1,,,,,
,,,,,,,,,,,,,,,2,5,2020-12-15_09h32.59.862,Context_Learning_Pilot,2020.1.3,MacIntel,60,,,,,,,0,media/djnb.png,1,Symb,u,RT,0,0,40,0,1,3,1.8,5,u,1,0.742315,40,0,40,0,1,,,,,
,,,,,,,,,,,,,,,2,5,2020-12-15_09h32.59.862,Context_Learning_Pilot,2020.1.3,MacIntel,60,,,,,,,1,media/dnnb.png,1,Symb,i,RT,0,0,41,0,1,3,1.8,5,i,1,0.61994,41,0,41,0,1,,,,,
,,,,,,,,,,,,,,,2,5,2020-12-15_09h32.59.862,Context_Learning_Pilot,2020.1.3,MacIntel,60,,,,,,,3,media/ddnb.png,2,Symb,i,RT,0,0,42,0,1,3,1.8,5,i,1,0.752225,42,0,42,0,1,,,,,
,,,,,,,,,,,,,,,2,5,2020-12-15_09h32.59.862,Context_Learning_Pilot,2020.1.3,MacIntel,60,,,,,,,0,media/djnb.png,2,Symb,h,RT,0,0,43,0,1,3,1.8,5,h,1,0.61803,43,0,43,0,1,,,,,
,,,,,,,,,,,,,,,2,5,2020-12-15_09h32.59.862,Context_Learning_Pilot,2020.1.3,MacIntel,60,,,,,,,2,media/dinb.png,2,Symb,u,RT,0,0,44,0,1,3,1.8,5,u,1,0.795195,44,0,44,0,1,,,,,
,,,,,,,,,,,,,,,2,5,2020-12-15_09h32.59.862,Context_Learning_Pilot,2020.1.3,MacIntel,60,,,,,,,3,media/ddnb.png,1,Symb,l,RT,0,0,45,0,1,3,1.8,5,i,0,0.629605,45,0,45,0,1,,,,,
,,,,,,,,,,,,,,,2,5,2020-12-15_09h32.59.862,Context_Learning_Pilot,2020.1.3,MacIntel,60,,,,,,,2,media/dinb.png,2,Symb,u,RT,0,0,46,0,1,3,1.8,5,u,1,1.59339,46,0,46,0,1,,,,,
,,,,,,,,,,,,,,,2,5,2020-12-15_09h32.59.862,Context_Learning_Pilot,2020.1.3,MacIntel,60,,,,,,,2,media/dinb.png,1,Symb,h,RT,0,0,47,0,1,3,1.8,5,h,1,0.57478,47,0,47,0,1,,,,,
,,,,,,,,,,,,,,,2,5,2020-12-15_09h32.59.862,Context_Learning_Pilot,2020.1.3,MacIntel,60,,,,,,,0,media/djnb.png,2,Symb,h,RT,0,0,48,0,1,3,1.8,5,h,1,1.331505,48,0,48,0,1,,,,,
,,,,,,,,,,,,,,,2,5,2020-12-15_09h32.59.862,Context_Learning_Pilot,2020.1.3,MacIntel,60,,,,,,,1,media/dnnb.png,1,Symb,i,RT,0,0,49,0,1,3,1.8,5,i,1,0.831815,49,0,49,0,1,,,,,
,,,,,,,,,,,,,,,2,5,2020-12-15_09h32.59.862,Context_Learning_Pilot,2020.1.3,MacIntel,60,,,,,,,2,media/dinb.png,1,Symb,h,RT,0,0,50,0,1,3,1.8,5,u,0,0.73402,50,0,50,0,1,,,,,
,,,,,,,,,,,,,,,2,5,2020-12-15_09h32.59.862,Context_Learning_Pilot,2020.1.3,MacIntel,60,,,,,,,2,media/dinb.png,1,Symb,h,RT,0,0,51,0,1,3,1.8,5,h,1,1.187175,51,0,51,0,1,,,,,
,,,,,,,,,,,,,,,2,5,2020-12-15_09h32.59.862,Context_Learning_Pilot,2020.1.3,MacIntel,60,,,,,,,3,media/ddnb.png,2,Symb,i,RT,0,0,52,0,1,3,1.8,5,i,1,2.840205,52,0,52,0,1,,,,,
,,,,,,,,,,,,,,,2,5,2020-12-15_09h32.59.862,Context_Learning_Pilot,2020.1.3,MacIntel,60,,,,,,,0,media/djnb.png,1,Symb,u,RT,0,0,53,0,1,3,1.8,5,u,1,0.742015,53,0,53,0,1,,,,,
,,,,,,,,,,,,,,,2,5,2020-12-15_09h32.59.862,Context_Learning_Pilot,2020.1.3,MacIntel,60,,,,,,,3,media/ddnb.png,1,Symb,l,RT,0,0,54,0,1,3,1.8,5,l,1,0.91611,54,0,54,0,1,,,,,
,,,,,,,,,,,,,,,2,5,2020-12-15_09h32.59.862,Context_Learning_Pilot,2020.1.3,MacIntel,60,,,,,,,1,media/dnnb.png,1,Symb,i,RT,0,0,55,0,1,3,1.8,5,i,1,1.58756,55,0,55,0,1,,,,,
,,,,,,,,,,,,,,,2,5,2020-12-15_09h32.59.862,Context_Learning_Pilot,2020.1.3,MacIntel,60,,,,,,,0,media/djnb.png,2,Symb,h,RT,0,0,56,0,1,3,1.8,5,h,1,0.890855,56,0,56,0,1,,,,,
,,,,,,,,,,,,,,,2,5,2020-12-15_09h32.59.862,Context_Learning_Pilot,2020.1.3,MacIntel,60,,,,,,,1,media/dnnb.png,2,Symb,l,RT,0,0,57,0,1,3,1.8,5,l,1,1.688145,57,0,57,0,1,,,,,
,,,,,,,,,,,,,,,2,5,2020-12-15_09h32.59.862,Context_Learning_Pilot,2020.1.3,MacIntel,60,,,,,,,2,media/dinb.png,2,Symb,u,RT,0,0,58,0,1,3,1.8,5,u,1,1.340515,58,0,58,0,1,,,,,
,,,,,,,,,,,,,,,2,5,2020-12-15_09h32.59.862,Context_Learning_Pilot,2020.1.3,MacIntel,60,,,,,,,1,media/dnnb.png,2,Symb,l,RT,0,0,59,0,1,3,1.8,5,l,1,0.51358,59,0,59,0,1,,,,,
,,,,,,,,,,,,,,,2,5,2020-12-15_09h32.59.862,Context_Learning_Pilot,2020.1.3,MacIntel,60,,,,,,,3,media/ddnb.png,2,Symb,i,RT,0,0,60,0,1,3,1.8,5,i,1,0.76799,60,0,60,0,1,,,,,
,,,,,,,,,,,,,,,2,5,2020-12-15_09h32.59.862,Context_Learning_Pilot,2020.1.3,MacIntel,60,,,,,,,0,media/djnb.png,1,Symb,u,RT,0,0,61,0,1,3,1.8,5,h,0,0.96267,61,0,61,0,1,,,,,
,,,,,,,,,,,,,,,2,5,2020-12-15_09h32.59.862,Context_Learning_Pilot,2020.1.3,MacIntel,60,,,,,,,2,media/dinb.png,2,Symb,u,RT,0,0,62,0,1,3,1.8,5,u,1,0.983215,62,0,62,0,1,,,,,
,,,,,,,,,,,,,,,2,5,2020-12-15_09h32.59.862,Context_Learning_Pilot,2020.1.3,MacIntel,60,,,,,,,3,media/ddnb.png,1,Symb,l,RT,0,0,63,0,1,3,1.8,5,i,0,0.819885,63,0,63,0,1,,,,,
,,,,,,,,,,,,,,,2,5,2020-12-15_09h32.59.862,Context_Learning_Pilot,2020.1.3,MacIntel,60,,,,,,,2,media/dinb.png,2,Symb,u,RT,0,0,64,0,1,3,1.8,5,h,0,1.51793,64,0,64,0,1,,,,,
,,,,,,,,,,,,,,,2,5,2020-12-15_09h32.59.862,Context_Learning_Pilot,2020.1.3,MacIntel,60,,,,,,,2,media/dinb.png,2,Symb,u,RT,0,0,65,0,1,3,1.8,5,u,1,0.67914,65,0,65,0,1,,,,,
,,,,,,,,,,,,,,,2,5,2020-12-15_09h32.59.862,Context_Learning_Pilot,2020.1.3,MacIntel,60,,,,,,,3,media/ddnb.png,2,Symb,i,RT,0,0,66,0,1,3,1.8,5,i,1,0.823195,66,0,66,0,1,,,,,
,,,,,,,,,,,,,,,2,5,2020-12-15_09h32.59.862,Context_Learning_Pilot,2020.1.3,MacIntel,60,,,,,,,3,media/ddnb.png,1,Symb,l,RT,0,0,67,0,1,3,1.8,5,l,1,0.61799,67,0,67,0,1,,,,,
,,,,,,,,,,,,,,,2,5,2020-12-15_09h32.59.862,Context_Learning_Pilot,2020.1.3,MacIntel,60,,,,,,,3,media/ddnb.png,2,Symb,i,RT,0,0,68,0,1,3,1.8,5,i,1,0.714435,68,0,68,0,1,,,,,
,,,,,,,,,,,,,,,2,5,2020-12-15_09h32.59.862,Context_Learning_Pilot,2020.1.3,MacIntel,60,,,,,,,0,media/djnb.png,2,Symb,h,RT,0,0,69,0,1,3,1.8,5,h,1,0.62498,69,0,69,0,1,,,,,
,,,,,,,,,,,,,,,2,5,2020-12-15_09h32.59.862,Context_Learning_Pilot,2020.1.3,MacIntel,60,,,,,,,0,media/djnb.png,1,Symb,u,RT,0,0,70,0,1,3,1.8,5,u,1,0.75228,70,0,70,0,1,,,,,
,,,,,,,,,,,,,,,2,5,2020-12-15_09h32.59.862,Context_Learning_Pilot,2020.1.3,MacIntel,60,,,,,,,0,media/djnb.png,1,Symb,u,RT,0,0,71,0,1,3,1.8,5,u,1,0.473215,71,0,71,0,1,,,,,
,,,,,,,,,,,,,,,2,5,2020-12-15_09h32.59.862,Context_Learning_Pilot,2020.1.3,MacIntel,60,,,,,,,1,media/dnnb.png,1,Symb,i,RT,0,0,72,0,1,3,1.8,5,i,1,0.596225,72,0,72,0,1,,,,,
,,,,,,,,,,,,,,,2,5,2020-12-15_09h32.59.862,Context_Learning_Pilot,2020.1.3,MacIntel,60,,,,,,,0,media/djnb.png,2,Symb,h,RT,0,0,73,0,1,3,1.8,5,h,1,0.705245,73,0,73,0,1,,,,,
,,,,,,,,,,,,,,,2,5,2020-12-15_09h32.59.862,Context_Learning_Pilot,2020.1.3,MacIntel,60,,,,,,,2,media/dinb.png,1,Symb,h,RT,0,0,74,0,1,3,1.8,5,h,1,0.61462,74,0,74,0,1,,,,,
,,,,,,,,,,,,,,,2,5,2020-12-15_09h32.59.862,Context_Learning_Pilot,2020.1.3,MacIntel,60,,,,,,,1,media/dnnb.png,2,Symb,l,RT,0,0,75,0,1,3,1.8,5,l,1,0.60674,75,0,75,0,1,,,,,
,,,,,,,,,,,,,,,2,5,2020-12-15_09h32.59.862,Context_Learning_Pilot,2020.1.3,MacIntel,60,,,,,,,2,media/dinb.png,1,Symb,h,RT,0,0,76,0,1,3,1.8,5,u,0,0.749445,76,0,76,0,1,,,,,
,,,,,,,,,,,,,,,2,5,2020-12-15_09h32.59.862,Context_Learning_Pilot,2020.1.3,MacIntel,60,,,,,,,1,media/dnnb.png,2,Symb,l,RT,0,0,77,0,1,3,1.8,5,l,1,1.114435,77,0,77,0,1,,,,,
,,,,,,,,,,,,,,,2,5,2020-12-15_09h32.59.862,Context_Learning_Pilot,2020.1.3,MacIntel,60,,,,,,,3,media/ddnb.png,1,Symb,l,RT,0,0,78,0,1,3,1.8,5,i,0,0.614245,78,0,78,0,1,,,,,
,,,,,,,,,,,,,,,2,5,2020-12-15_09h32.59.862,Context_Learning_Pilot,2020.1.3,MacIntel,60,,,,,,,1,media/dnnb.png,1,Symb,i,RT,0,0,79,0,1,3,1.8,5,i,1,0.81566,79,0,79,0,1,,,,,
,,,,,,,,,,,,,,,2,5,2020-12-15_09h32.59.862,Context_Learning_Pilot,2020.1.3,MacIntel,60,,,,,,,0,media/djnb.png,1,Symb,u,RT,0,0,80,0,1,3,1.8,5,h,0,0.66597,80,0,80,0,1,,,,,
,,,,,,,,,,,,,,,2,5,2020-12-15_09h32.59.862,Context_Learning_Pilot,2020.1.3,MacIntel,60,,,,,,,2,media/dinb.png,1,Symb,h,RT,0,0,81,0,1,3,1.8,5,h,1,1.027885,81,0,81,0,1,,,,,
,,,,,,,,,,,,,,,2,5,2020-12-15_09h32.59.862,Context_Learning_Pilot,2020.1.3,MacIntel,60,,,,,,,3,media/ddnb.png,1,Symb,l,RT,0,0,82,0,1,3,1.8,5,l,1,0.77713,82,0,82,0,1,,,,,
,,,,,,,,,,,,,,,2,5,2020-12-15_09h32.59.862,Context_Learning_Pilot,2020.1.3,MacIntel,60,,,,,,,1,media/dnnb.png,2,Symb,l,RT,0,0,83,0,1,3,1.8,5,l,1,0.70708,83,0,83,0,1,,,,,
,,,,,,,,,,,,,,,2,5,2020-12-15_09h32.59.862,Context_Learning_Pilot,2020.1.3,MacIntel,60,,,,,,,2,media/dinb.png,1,Symb,h,RT,0,0,84,0,1,3,1.8,5,h,1,0.85819,84,0,84,0,1,,,,,
,,,,,,,,,,,,,,,2,5,2020-12-15_09h32.59.862,Context_Learning_Pilot,2020.1.3,MacIntel,60,,,,,,,3,media/ddnb.png,2,Symb,i,RT,0,0,85,0,1,3,1.8,5,i,1,0.89831,85,0,85,0,1,,,,,
,,,,,,,,,,,,,,,2,5,2020-12-15_09h32.59.862,Context_Learning_Pilot,2020.1.3,MacIntel,60,,,,,,,0,media/djnb.png,2,Symb,h,RT,0,0,86,0,1,3,1.8,5,h,1,0.927665,86,0,86,0,1,,,,,
,,,,,,,,,,,,,,,2,5,2020-12-15_09h32.59.862,Context_Learning_Pilot,2020.1.3,MacIntel,60,,,,,,,1,media/dnnb.png,1,Symb,i,RT,0,0,87,0,1,3,1.8,5,i,1,1.281765,87,0,87,0,1,,,,,
,,,,,,,,,,,,,,,2,5,2020-12-15_09h32.59.862,Context_Learning_Pilot,2020.1.3,MacIntel,60,,,,,,,1,media/dnnb.png,1,Symb,i,RT,0,0,88,0,1,3,1.8,5,i,1,0.716585,88,0,88,0,1,,,,,
,,,,,,,,,,,,,,,2,5,2020-12-15_09h32.59.862,Context_Learning_Pilot,2020.1.3,MacIntel,60,,,,,,,3,media/ddnb.png,2,Symb,i,RT,0,0,89,0,1,3,1.8,5,i,1,2.67365,89,0,89,0,1,,,,,
,,,,,,,,,,,,,,,2,5,2020-12-15_09h32.59.862,Context_Learning_Pilot,2020.1.3,MacIntel,60,,,,,,,1,media/dnnb.png,2,Symb,l,RT,0,0,90,0,1,3,1.8,5,l,1,0.708005,90,0,90,0,1,,,,,
,,,,,,,,,,,,,,,2,5,2020-12-15_09h32.59.862,Context_Learning_Pilot,2020.1.3,MacIntel,60,,,,,,,2,media/dinb.png,2,Symb,u,RT,0,0,91,0,1,3,1.8,5,u,1,0.87327,91,0,91,0,1,,,,,
,,,,,,,,,,,,,,,2,5,2020-12-15_09h32.59.862,Context_Learning_Pilot,2020.1.3,MacIntel,60,,,,,,,0,media/djnb.png,2,Symb,h,RT,0,0,92,0,1,3,1.8,5,h,1,0.704,92,0,92,0,1,,,,,
,,,,,,,,,,,,,,,2,5,2020-12-15_09h32.59.862,Context_Learning_Pilot,2020.1.3,MacIntel,60,,,,,,,0,media/djnb.png,1,Symb,u,RT,0,0,93,0,1,3,1.8,5,u,1,1.165445,93,0,93,0,1,,,,,
,,,,,,,,,,,,,,,2,5,2020-12-15_09h32.59.862,Context_Learning_Pilot,2020.1.3,MacIntel,60,,,,,,,2,media/dinb.png,2,Symb,u,RT,0,0,94,0,1,3,1.8,5,u,1,1.726975,94,0,94,0,1,,,,,
,,,,,,,,,,,,,,,2,5,2020-12-15_09h32.59.862,Context_Learning_Pilot,2020.1.3,MacIntel,60,,,,,,,3,media/ddnb.png,1,Symb,l,RT,0,0,95,0,1,3,1.8,5,l,1,0.754295,95,0,95,0,1,,,,,
,,,,,,,,,,,,,,,2,5,2020-12-15_09h32.59.862,Context_Learning_Pilot,2020.1.3,MacIntel,60,,,,,,,,,,,,,,,,,,,,,,,,,,,,,2,0,2,0,1
,,,,,,,,,,,,,,,2,5,2020-12-15_09h32.59.862,Context_Learning_Pilot,2020.1.3,MacIntel,60,,,,,h,1.302635,0,media/djnb.png,2,Symb,h,RT,0,0,0,0,1,4,1.8,5,h,1,0.694765,0,0,0,0,1,,,,,
,,,,,,,,,,,,,,,2,5,2020-12-15_09h32.59.862,Context_Learning_Pilot,2020.1.3,MacIntel,60,,,,,,,3,media/ddnb.png,2,Symb,i,RT,0,0,1,0,1,4,1.8,5,i,1,0.91394,1,0,1,0,1,,,,,
,,,,,,,,,,,,,,,2,5,2020-12-15_09h32.59.862,Context_Learning_Pilot,2020.1.3,MacIntel,60,,,,,,,3,media/ddnb.png,1,Symb,l,RT,0,0,2,0,1,4,1.8,5,l,1,0.692295,2,0,2,0,1,,,,,
,,,,,,,,,,,,,,,2,5,2020-12-15_09h32.59.862,Context_Learning_Pilot,2020.1.3,MacIntel,60,,,,,,,3,media/ddnb.png,1,Symb,l,RT,0,0,3,0,1,4,1.8,5,l,1,0.625935,3,0,3,0,1,,,,,
,,,,,,,,,,,,,,,2,5,2020-12-15_09h32.59.862,Context_Learning_Pilot,2020.1.3,MacIntel,60,,,,,,,2,media/dinb.png,2,Symb,u,RT,0,0,4,0,1,4,1.8,5,u,1,0.977945,4,0,4,0,1,,,,,
,,,,,,,,,,,,,,,2,5,2020-12-15_09h32.59.862,Context_Learning_Pilot,2020.1.3,MacIntel,60,,,,,,,1,media/dnnb.png,2,Symb,l,RT,0,0,5,0,1,4,1.8,5,l,1,0.742615,5,0,5,0,1,,,,,
,,,,,,,,,,,,,,,2,5,2020-12-15_09h32.59.862,Context_Learning_Pilot,2020.1.3,MacIntel,60,,,,,,,1,media/dnnb.png,1,Symb,i,RT,0,0,6,0,1,4,1.8,5,i,1,0.9,6,0,6,0,1,,,,,
,,,,,,,,,,,,,,,2,5,2020-12-15_09h32.59.862,Context_Learning_Pilot,2020.1.3,MacIntel,60,,,,,,,2,media/dinb.png,2,Symb,u,RT,0,0,7,0,1,4,1.8,5,u,1,1.05549,7,0,7,0,1,,,,,
,,,,,,,,,,,,,,,2,5,2020-12-15_09h32.59.862,Context_Learning_Pilot,2020.1.3,MacIntel,60,,,,,,,0,media/djnb.png,1,Symb,u,RT,0,0,8,0,1,4,1.8,5,u,1,0.73908,8,0,8,0,1,,,,,
,,,,,,,,,,,,,,,2,5,2020-12-15_09h32.59.862,Context_Learning_Pilot,2020.1.3,MacIntel,60,,,,,,,1,media/dnnb.png,1,Symb,i,RT,0,0,9,0,1,4,1.8,5,i,1,0.71521,9,0,9,0,1,,,,,
,,,,,,,,,,,,,,,2,5,2020-12-15_09h32.59.862,Context_Learning_Pilot,2020.1.3,MacIntel,60,,,,,,,2,media/dinb.png,1,Symb,h,RT,0,0,10,0,1,4,1.8,5,h,1,0.703975,10,0,10,0,1,,,,,
,,,,,,,,,,,,,,,2,5,2020-12-15_09h32.59.862,Context_Learning_Pilot,2020.1.3,MacIntel,60,,,,,,,2,media/dinb.png,1,Symb,h,RT,0,0,11,0,1,4,1.8,5,h,1,0.4873,11,0,11,0,1,,,,,
,,,,,,,,,,,,,,,2,5,2020-12-15_09h32.59.862,Context_Learning_Pilot,2020.1.3,MacIntel,60,,,,,,,0,media/djnb.png,1,Symb,u,RT,0,0,12,0,1,4,1.8,5,u,1,0.99624,12,0,12,0,1,,,,,
,,,,,,,,,,,,,,,2,5,2020-12-15_09h32.59.862,Context_Learning_Pilot,2020.1.3,MacIntel,60,,,,,,,3,media/ddnb.png,2,Symb,i,RT,0,0,13,0,1,4,1.8,5,i,1,0.788145,13,0,13,0,1,,,,,
,,,,,,,,,,,,,,,2,5,2020-12-15_09h32.59.862,Context_Learning_Pilot,2020.1.3,MacIntel,60,,,,,,,1,media/dnnb.png,2,Symb,l,RT,0,0,14,0,1,4,1.8,5,l,1,0.77062,14,0,14,0,1,,,,,
,,,,,,,,,,,,,,,2,5,2020-12-15_09h32.59.862,Context_Learning_Pilot,2020.1.3,MacIntel,60,,,,,,,0,media/djnb.png,2,Symb,h,RT,0,0,15,0,1,4,1.8,5,h,1,0.68668,15,0,15,0,1,,,,,
,,,,,,,,,,,,,,,2,5,2020-12-15_09h32.59.862,Context_Learning_Pilot,2020.1.3,MacIntel,60,,,,,,,0,media/djnb.png,2,Symb,h,RT,0,0,16,0,1,4,1.8,5,h,1,0.56649,16,0,16,0,1,,,,,
,,,,,,,,,,,,,,,2,5,2020-12-15_09h32.59.862,Context_Learning_Pilot,2020.1.3,MacIntel,60,,,,,,,3,media/ddnb.png,2,Symb,i,RT,0,0,17,0,1,4,1.8,5,i,1,0.803525,17,0,17,0,1,,,,,
,,,,,,,,,,,,,,,2,5,2020-12-15_09h32.59.862,Context_Learning_Pilot,2020.1.3,MacIntel,60,,,,,,,2,media/dinb.png,2,Symb,u,RT,0,0,18,0,1,4,1.8,5,u,1,0.69255,18,0,18,0,1,,,,,
,,,,,,,,,,,,,,,2,5,2020-12-15_09h32.59.862,Context_Learning_Pilot,2020.1.3,MacIntel,60,,,,,,,0,media/djnb.png,1,Symb,u,RT,0,0,19,0,1,4,1.8,5,i,0,1.23905,19,0,19,0,1,,,,,
,,,,,,,,,,,,,,,2,5,2020-12-15_09h32.59.862,Context_Learning_Pilot,2020.1.3,MacIntel,60,,,,,,,2,media/dinb.png,2,Symb,u,RT,0,0,20,0,1,4,1.8,5,u,1,0.76696,20,0,20,0,1,,,,,
,,,,,,,,,,,,,,,2,5,2020-12-15_09h32.59.862,Context_Learning_Pilot,2020.1.3,MacIntel,60,,,,,,,3,media/ddnb.png,2,Symb,i,RT,0,0,21,0,1,4,1.8,5,i,1,0.667535,21,0,21,0,1,,,,,
,,,,,,,,,,,,,,,2,5,2020-12-15_09h32.59.862,Context_Learning_Pilot,2020.1.3,MacIntel,60,,,,,,,1,media/dnnb.png,1,Symb,i,RT,0,0,22,0,1,4,1.8,5,i,1,0.79837,22,0,22,0,1,,,,,
,,,,,,,,,,,,,,,2,5,2020-12-15_09h32.59.862,Context_Learning_Pilot,2020.1.3,MacIntel,60,,,,,,,1,media/dnnb.png,2,Symb,l,RT,0,0,23,0,1,4,1.8,5,l,1,0.624895,23,0,23,0,1,,,,,
,,,,,,,,,,,,,,,2,5,2020-12-15_09h32.59.862,Context_Learning_Pilot,2020.1.3,MacIntel,60,,,,,,,2,media/dinb.png,1,Symb,h,RT,0,0,24,0,1,4,1.8,5,h,1,0.91575,24,0,24,0,1,,,,,
,,,,,,,,,,,,,,,2,5,2020-12-15_09h32.59.862,Context_Learning_Pilot,2020.1.3,MacIntel,60,,,,,,,3,media/ddnb.png,1,Symb,l,RT,0,0,25,0,1,4,1.8,5,i,0,1.07142,25,0,25,0,1,,,,,
,,,,,,,,,,,,,,,2,5,2020-12-15_09h32.59.862,Context_Learning_Pilot,2020.1.3,MacIntel,60,,,,,,,0,media/djnb.png,2,Symb,h,RT,0,0,26,0,1,4,1.8,5,h,1,0.613,26,0,26,0,1,,,,,
,,,,,,,,,,,,,,,2,5,2020-12-15_09h32.59.862,Context_Learning_Pilot,2020.1.3,MacIntel,60,,,,,,,1,media/dnnb.png,1,Symb,i,RT,0,0,27,0,1,4,1.8,5,i,1,1.182755,27,0,27,0,1,,,,,
,,,,,,,,,,,,,,,2,5,2020-12-15_09h32.59.862,Context_Learning_Pilot,2020.1.3,MacIntel,60,,,,,,,0,media/djnb.png,1,Symb,u,RT,0,0,28,0,1,4,1.8,5,u,1,0.73321,28,0,28,0,1,,,,,
,,,,,,,,,,,,,,,2,5,2020-12-15_09h32.59.862,Context_Learning_Pilot,2020.1.3,MacIntel,60,,,,,,,1,media/dnnb.png,2,Symb,l,RT,0,0,29,0,1,4,1.8,5,l,1,0.67814,29,0,29,0,1,,,,,
,,,,,,,,,,,,,,,2,5,2020-12-15_09h32.59.862,Context_Learning_Pilot,2020.1.3,MacIntel,60,,,,,,,3,media/ddnb.png,1,Symb,l,RT,0,0,30,0,1,4,1.8,5,l,1,0.72771,30,0,30,0,1,,,,,
,,,,,,,,,,,,,,,2,5,2020-12-15_09h32.59.862,Context_Learning_Pilot,2020.1.3,MacIntel,60,,,,,,,2,media/dinb.png,1,Symb,h,RT,0,0,31,0,1,4,1.8,5,h,1,0.969035,31,0,31,0,1,,,,,
,,,,,,,,,,,,,,,2,5,2020-12-15_09h32.59.862,Context_Learning_Pilot,2020.1.3,MacIntel,60,,,,,,,3,media/ddnb.png,2,Symb,i,RT,0,0,32,0,1,4,1.8,5,i,1,0.829545,32,0,32,0,1,,,,,
,,,,,,,,,,,,,,,2,5,2020-12-15_09h32.59.862,Context_Learning_Pilot,2020.1.3,MacIntel,60,,,,,,,1,media/dnnb.png,1,Symb,i,RT,0,0,33,0,1,4,1.8,5,i,1,0.75446,33,0,33,0,1,,,,,
,,,,,,,,,,,,,,,2,5,2020-12-15_09h32.59.862,Context_Learning_Pilot,2020.1.3,MacIntel,60,,,,,,,3,media/ddnb.png,1,Symb,l,RT,0,0,34,0,1,4,1.8,5,l,1,0.796325,34,0,34,0,1,,,,,
,,,,,,,,,,,,,,,2,5,2020-12-15_09h32.59.862,Context_Learning_Pilot,2020.1.3,MacIntel,60,,,,,,,1,media/dnnb.png,1,Symb,i,RT,0,0,35,0,1,4,1.8,5,i,1,0.693705,35,0,35,0,1,,,,,
,,,,,,,,,,,,,,,2,5,2020-12-15_09h32.59.862,Context_Learning_Pilot,2020.1.3,MacIntel,60,,,,,,,2,media/dinb.png,1,Symb,h,RT,0,0,36,0,1,4,1.8,5,h,1,0.72856,36,0,36,0,1,,,,,
,,,,,,,,,,,,,,,2,5,2020-12-15_09h32.59.862,Context_Learning_Pilot,2020.1.3,MacIntel,60,,,,,,,0,media/djnb.png,1,Symb,u,RT,0,0,37,0,1,4,1.8,5,u,1,0.771155,37,0,37,0,1,,,,,
,,,,,,,,,,,,,,,2,5,2020-12-15_09h32.59.862,Context_Learning_Pilot,2020.1.3,MacIntel,60,,,,,,,0,media/djnb.png,2,Symb,h,RT,0,0,38,0,1,4,1.8,5,i,0,0.924295,38,0,38,0,1,,,,,
,,,,,,,,,,,,,,,2,5,2020-12-15_09h32.59.862,Context_Learning_Pilot,2020.1.3,MacIntel,60,,,,,,,3,media/ddnb.png,1,Symb,l,RT,0,0,39,0,1,4,1.8,5,l,1,0.742765,39,0,39,0,1,,,,,
,,,,,,,,,,,,,,,2,5,2020-12-15_09h32.59.862,Context_Learning_Pilot,2020.1.3,MacIntel,60,,,,,,,0,media/djnb.png,2,Symb,h,RT,0,0,40,0,1,4,1.8,5,h,1,0.638145,40,0,40,0,1,,,,,
,,,,,,,,,,,,,,,2,5,2020-12-15_09h32.59.862,Context_Learning_Pilot,2020.1.3,MacIntel,60,,,,,,,3,media/ddnb.png,2,Symb,i,RT,0,0,41,0,1,4,1.8,5,i,1,0.741995,41,0,41,0,1,,,,,
,,,,,,,,,,,,,,,2,5,2020-12-15_09h32.59.862,Context_Learning_Pilot,2020.1.3,MacIntel,60,,,,,,,2,media/dinb.png,2,Symb,u,RT,0,0,42,0,1,4,1.8,5,h,0,1.14632,42,0,42,0,1,,,,,
,,,,,,,,,,,,,,,2,5,2020-12-15_09h32.59.862,Context_Learning_Pilot,2020.1.3,MacIntel,60,,,,,,,2,media/dinb.png,1,Symb,h,RT,0,0,43,0,1,4,1.8,5,h,1,0.63077,43,0,43,0,1,,,,,
,,,,,,,,,,,,,,,2,5,2020-12-15_09h32.59.862,Context_Learning_Pilot,2020.1.3,MacIntel,60,,,,,,,1,media/dnnb.png,2,Symb,l,RT,0,0,44,0,1,4,1.8,5,l,1,1.80364,44,0,44,0,1,,,,,
,,,,,,,,,,,,,,,2,5,2020-12-15_09h32.59.862,Context_Learning_Pilot,2020.1.3,MacIntel,60,,,,,,,2,media/dinb.png,2,Symb,u,RT,0,0,45,0,1,4,1.8,5,u,1,0.73323,45,0,45,0,1,,,,,
,,,,,,,,,,,,,,,2,5,2020-12-15_09h32.59.862,Context_Learning_Pilot,2020.1.3,MacIntel,60,,,,,,,0,media/djnb.png,1,Symb,u,RT,0,0,46,0,1,4,1.8,5,u,1,0.73382,46,0,46,0,1,,,,,
,,,,,,,,,,,,,,,2,5,2020-12-15_09h32.59.862,Context_Learning_Pilot,2020.1.3,MacIntel,60,,,,,,,1,media/dnnb.png,2,Symb,l,RT,0,0,47,0,1,4,1.8,5,l,1,0.565745,47,0,47,0,1,,,,,
,,,,,,,,,,,,,,,2,5,2020-12-15_09h32.59.862,Context_Learning_Pilot,2020.1.3,MacIntel,60,,,,,,,0,media/djnb.png,1,Symb,u,RT,0,0,48,0,1,4,1.8,5,u,1,0.737755,48,0,48,0,1,,,,,
,,,,,,,,,,,,,,,2,5,2020-12-15_09h32.59.862,Context_Learning_Pilot,2020.1.3,MacIntel,60,,,,,,,1,media/dnnb.png,1,Symb,i,RT,0,0,49,0,1,4,1.8,5,i,1,0.769825,49,0,49,0,1,,,,,
,,,,,,,,,,,,,,,2,5,2020-12-15_09h32.59.862,Context_Learning_Pilot,2020.1.3,MacIntel,60,,,,,,,0,media/djnb.png,2,Symb,h,RT,0,0,50,0,1,4,1.8,5,h,1,0.649,50,0,50,0,1,,,,,
,,,,,,,,,,,,,,,2,5,2020-12-15_09h32.59.862,Context_Learning_Pilot,2020.1.3,MacIntel,60,,,,,,,2,media/dinb.png,1,Symb,h,RT,0,0,51,0,1,4,1.8,5,h,1,0.69879,51,0,51,0,1,,,,,
,,,,,,,,,,,,,,,2,5,2020-12-15_09h32.59.862,Context_Learning_Pilot,2020.1.3,MacIntel,60,,,,,,,3,media/ddnb.png,1,Symb,l,RT,0,0,52,0,1,4,1.8,5,i,0,1.05881,52,0,52,0,1,,,,,
,,,,,,,,,,,,,,,2,5,2020-12-15_09h32.59.862,Context_Learning_Pilot,2020.1.3,MacIntel,60,,,,,,,3,media/ddnb.png,2,Symb,i,RT,0,0,53,0,1,4,1.8,5,i,1,0.62114,53,0,53,0,1,,,,,
,,,,,,,,,,,,,,,2,5,2020-12-15_09h32.59.862,Context_Learning_Pilot,2020.1.3,MacIntel,60,,,,,,,0,media/djnb.png,2,Symb,h,RT,0,0,54,0,1,4,1.8,5,h,1,1.05753,54,0,54,0,1,,,,,
,,,,,,,,,,,,,,,2,5,2020-12-15_09h32.59.862,Context_Learning_Pilot,2020.1.3,MacIntel,60,,,,,,,2,media/dinb.png,1,Symb,h,RT,0,0,55,0,1,4,1.8,5,h,1,0.59564,55,0,55,0,1,,,,,
,,,,,,,,,,,,,,,2,5,2020-12-15_09h32.59.862,Context_Learning_Pilot,2020.1.3,MacIntel,60,,,,,,,3,media/ddnb.png,1,Symb,l,RT,0,0,56,0,1,4,1.8,5,l,1,0.76985,56,0,56,0,1,,,,,
,,,,,,,,,,,,,,,2,5,2020-12-15_09h32.59.862,Context_Learning_Pilot,2020.1.3,MacIntel,60,,,,,,,1,media/dnnb.png,1,Symb,i,RT,0,0,57,0,1,4,1.8,5,i,1,0.761005,57,0,57,0,1,,,,,
,,,,,,,,,,,,,,,2,5,2020-12-15_09h32.59.862,Context_Learning_Pilot,2020.1.3,MacIntel,60,,,,,,,2,media/dinb.png,2,Symb,u,RT,0,0,58,0,1,4,1.8,5,u,1,1.13594,58,0,58,0,1,,,,,
,,,,,,,,,,,,,,,2,5,2020-12-15_09h32.59.862,Context_Learning_Pilot,2020.1.3,MacIntel,60,,,,,,,0,media/djnb.png,1,Symb,u,RT,0,0,59,0,1,4,1.8,5,u,1,0.6863,59,0,59,0,1,,,,,
,,,,,,,,,,,,,,,2,5,2020-12-15_09h32.59.862,Context_Learning_Pilot,2020.1.3,MacIntel,60,,,,,,,1,media/dnnb.png,2,Symb,l,RT,0,0,60,0,1,4,1.8,5,l,1,0.574615,60,0,60,0,1,,,,,
,,,,,,,,,,,,,,,2,5,2020-12-15_09h32.59.862,Context_Learning_Pilot,2020.1.3,MacIntel,60,,,,,,,2,media/dinb.png,2,Symb,u,RT,0,0,61,0,1,4,1.8,5,u,1,1.292445,61,0,61,0,1,,,,,
,,,,,,,,,,,,,,,2,5,2020-12-15_09h32.59.862,Context_Learning_Pilot,2020.1.3,MacIntel,60,,,,,,,1,media/dnnb.png,2,Symb,l,RT,0,0,62,0,1,4,1.8,5,l,1,0.568615,62,0,62,0,1,,,,,
,,,,,,,,,,,,,,,2,5,2020-12-15_09h32.59.862,Context_Learning_Pilot,2020.1.3,MacIntel,60,,,,,,,3,media/ddnb.png,2,Symb,i,RT,0,0,63,0,1,4,1.8,5,i,1,0.79292,63,0,63,0,1,,,,,
,,,,,,,,,,,,,,,2,5,2020-12-15_09h32.59.862,Context_Learning_Pilot,2020.1.3,MacIntel,60,,,,,,,3,media/ddnb.png,1,Symb,l,RT,0,0,64,0,1,4,1.8,5,l,1,0.856895,64,0,64,0,1,,,,,
,,,,,,,,,,,,,,,2,5,2020-12-15_09h32.59.862,Context_Learning_Pilot,2020.1.3,MacIntel,60,,,,,,,3,media/ddnb.png,2,Symb,i,RT,0,0,65,0,1,4,1.8,5,i,1,0.65437,65,0,65,0,1,,,,,
,,,,,,,,,,,,,,,2,5,2020-12-15_09h32.59.862,Context_Learning_Pilot,2020.1.3,MacIntel,60,,,,,,,3,media/ddnb.png,1,Symb,l,RT,0,0,66,0,1,4,1.8,5,l,1,0.72138,66,0,66,0,1,,,,,
,,,,,,,,,,,,,,,2,5,2020-12-15_09h32.59.862,Context_Learning_Pilot,2020.1.3,MacIntel,60,,,,,,,2,media/dinb.png,2,Symb,u,RT,0,0,67,0,1,4,1.8,5,u,1,1.929445,67,0,67,0,1,,,,,
,,,,,,,,,,,,,,,2,5,2020-12-15_09h32.59.862,Context_Learning_Pilot,2020.1.3,MacIntel,60,,,,,,,0,media/djnb.png,1,Symb,u,RT,0,0,68,0,1,4,1.8,5,u,1,1.311345,68,0,68,0,1,,,,,
,,,,,,,,,,,,,,,2,5,2020-12-15_09h32.59.862,Context_Learning_Pilot,2020.1.3,MacIntel,60,,,,,,,2,media/dinb.png,1,Symb,h,RT,0,0,69,0,1,4,1.8,5,h,1,0.704765,69,0,69,0,1,,,,,
,,,,,,,,,,,,,,,2,5,2020-12-15_09h32.59.862,Context_Learning_Pilot,2020.1.3,MacIntel,60,,,,,,,1,media/dnnb.png,2,Symb,l,RT,0,0,70,0,1,4,1.8,5,l,1,0.773645,70,0,70,0,1,,,,,
,,,,,,,,,,,,,,,2,5,2020-12-15_09h32.59.862,Context_Learning_Pilot,2020.1.3,MacIntel,60,,,,,,,1,media/dnnb.png,2,Symb,l,RT,0,0,71,0,1,4,1.8,5,l,1,0.51921,71,0,71,0,1,,,,,
,,,,,,,,,,,,,,,2,5,2020-12-15_09h32.59.862,Context_Learning_Pilot,2020.1.3,MacIntel,60,,,,,,,1,media/dnnb.png,1,Symb,i,RT,0,0,72,0,1,4,1.8,5,i,1,0.63501,72,0,72,0,1,,,,,
,,,,,,,,,,,,,,,2,5,2020-12-15_09h32.59.862,Context_Learning_Pilot,2020.1.3,MacIntel,60,,,,,,,0,media/djnb.png,2,Symb,h,RT,0,0,73,0,1,4,1.8,5,h,1,1.10463,73,0,73,0,1,,,,,
,,,,,,,,,,,,,,,2,5,2020-12-15_09h32.59.862,Context_Learning_Pilot,2020.1.3,MacIntel,60,,,,,,,2,media/dinb.png,2,Symb,u,RT,0,0,74,0,1,4,1.8,5,u,1,1.324315,74,0,74,0,1,,,,,
,,,,,,,,,,,,,,,2,5,2020-12-15_09h32.59.862,Context_Learning_Pilot,2020.1.3,MacIntel,60,,,,,,,0,media/djnb.png,1,Symb,u,RT,0,0,75,0,1,4,1.8,5,u,1,0.76472,75,0,75,0,1,,,,,
,,,,,,,,,,,,,,,2,5,2020-12-15_09h32.59.862,Context_Learning_Pilot,2020.1.3,MacIntel,60,,,,,,,2,media/dinb.png,1,Symb,h,RT,0,0,76,0,1,4,1.8,5,h,1,0.71121,76,0,76,0,1,,,,,
,,,,,,,,,,,,,,,2,5,2020-12-15_09h32.59.862,Context_Learning_Pilot,2020.1.3,MacIntel,60,,,,,,,3,media/ddnb.png,2,Symb,i,RT,0,0,77,0,1,4,1.8,5,i,1,0.58562,77,0,77,0,1,,,,,
,,,,,,,,,,,,,,,2,5,2020-12-15_09h32.59.862,Context_Learning_Pilot,2020.1.3,MacIntel,60,,,,,,,1,media/dnnb.png,1,Symb,i,RT,0,0,78,0,1,4,1.8,5,i,1,0.650815,78,0,78,0,1,,,,,
,,,,,,,,,,,,,,,2,5,2020-12-15_09h32.59.862,Context_Learning_Pilot,2020.1.3,MacIntel,60,,,,,,,0,media/djnb.png,2,Symb,h,RT,0,0,79,0,1,4,1.8,5,h,1,0.531465,79,0,79,0,1,,,,,
,,,,,,,,,,,,,,,2,5,2020-12-15_09h32.59.862,Context_Learning_Pilot,2020.1.3,MacIntel,60,,,,,,,0,media/djnb.png,1,Symb,u,RT,0,0,80,0,1,4,1.8,5,u,1,0.77141,80,0,80,0,1,,,,,
,,,,,,,,,,,,,,,2,5,2020-12-15_09h32.59.862,Context_Learning_Pilot,2020.1.3,MacIntel,60,,,,,,,3,media/ddnb.png,2,Symb,i,RT,0,0,81,0,1,4,1.8,5,i,1,0.672395,81,0,81,0,1,,,,,
,,,,,,,,,,,,,,,2,5,2020-12-15_09h32.59.862,Context_Learning_Pilot,2020.1.3,MacIntel,60,,,,,,,0,media/djnb.png,2,Symb,h,RT,0,0,82,0,1,4,1.8,5,h,1,0.869225,82,0,82,0,1,,,,,
,,,,,,,,,,,,,,,2,5,2020-12-15_09h32.59.862,Context_Learning_Pilot,2020.1.3,MacIntel,60,,,,,,,1,media/dnnb.png,2,Symb,l,RT,0,0,83,0,1,4,1.8,5,l,1,0.7679,83,0,83,0,1,,,,,
,,,,,,,,,,,,,,,2,5,2020-12-15_09h32.59.862,Context_Learning_Pilot,2020.1.3,MacIntel,60,,,,,,,3,media/ddnb.png,1,Symb,l,RT,0,0,84,0,1,4,1.8,5,l,1,0.84199,84,0,84,0,1,,,,,
,,,,,,,,,,,,,,,2,5,2020-12-15_09h32.59.862,Context_Learning_Pilot,2020.1.3,MacIntel,60,,,,,,,1,media/dnnb.png,1,Symb,i,RT,0,0,85,0,1,4,1.8,5,l,0,0.535315,85,0,85,0,1,,,,,
,,,,,,,,,,,,,,,2,5,2020-12-15_09h32.59.862,Context_Learning_Pilot,2020.1.3,MacIntel,60,,,,,,,1,media/dnnb.png,2,Symb,l,RT,0,0,86,0,1,4,1.8,5,l,1,0.837745,86,0,86,0,1,,,,,
,,,,,,,,,,,,,,,2,5,2020-12-15_09h32.59.862,Context_Learning_Pilot,2020.1.3,MacIntel,60,,,,,,,3,media/ddnb.png,1,Symb,l,RT,0,0,87,0,1,4,1.8,5,i,0,0.86979,87,0,87,0,1,,,,,
,,,,,,,,,,,,,,,2,5,2020-12-15_09h32.59.862,Context_Learning_Pilot,2020.1.3,MacIntel,60,,,,,,,0,media/djnb.png,1,Symb,u,RT,0,0,88,0,1,4,1.8,5,u,1,1.269125,88,0,88,0,1,,,,,
,,,,,,,,,,,,,,,2,5,2020-12-15_09h32.59.862,Context_Learning_Pilot,2020.1.3,MacIntel,60,,,,,,,2,media/dinb.png,2,Symb,u,RT,0,0,89,0,1,4,1.8,5,u,1,2.053975,89,0,89,0,1,,,,,
,,,,,,,,,,,,,,,2,5,2020-12-15_09h32.59.862,Context_Learning_Pilot,2020.1.3,MacIntel,60,,,,,,,2,media/dinb.png,2,Symb,u,RT,0,0,90,0,1,4,1.8,5,u,1,0.59137,90,0,90,0,1,,,,,
,,,,,,,,,,,,,,,2,5,2020-12-15_09h32.59.862,Context_Learning_Pilot,2020.1.3,MacIntel,60,,,,,,,2,media/dinb.png,1,Symb,h,RT,0,0,91,0,1,4,1.8,5,h,1,0.65417,91,0,91,0,1,,,,,
,,,,,,,,,,,,,,,2,5,2020-12-15_09h32.59.862,Context_Learning_Pilot,2020.1.3,MacIntel,60,,,,,,,0,media/djnb.png,2,Symb,h,RT,0,0,92,0,1,4,1.8,5,h,1,0.752595,92,0,92,0,1,,,,,
,,,,,,,,,,,,,,,2,5,2020-12-15_09h32.59.862,Context_Learning_Pilot,2020.1.3,MacIntel,60,,,,,,,1,media/dnnb.png,1,Symb,i,RT,0,0,93,0,1,4,1.8,5,i,1,0.73674,93,0,93,0,1,,,,,
,,,,,,,,,,,,,,,2,5,2020-12-15_09h32.59.862,Context_Learning_Pilot,2020.1.3,MacIntel,60,,,,,,,3,media/ddnb.png,2,Symb,i,RT,0,0,94,0,1,4,1.8,5,i,1,0.500235,94,0,94,0,1,,,,,
,,,,,,,,,,,,,,,2,5,2020-12-15_09h32.59.862,Context_Learning_Pilot,2020.1.3,MacIntel,60,,,,,,,2,media/dinb.png,1,Symb,h,RT,0,0,95,0,1,4,1.8,5,h,1,0.70031,95,0,95,0,1,,,,,
,,,,,,,,,,,,,,,2,5,2020-12-15_09h32.59.862,Context_Learning_Pilot,2020.1.3,MacIntel,60,,,,,,,,,,,,,,,,,,,,,,,,,,,,,3,0,3,0,1
,,,,,,,,,,,,,,,2,5,2020-12-15_09h32.59.862,Context_Learning_Pilot,2020.1.3,MacIntel,60,,,,,h,6.126375,1,media/dnnb.png,1,Symb,i,RT,0,0,0,0,1,5,1.8,5,i,1,1.033005,0,0,0,0,1,,,,,
,,,,,,,,,,,,,,,2,5,2020-12-15_09h32.59.862,Context_Learning_Pilot,2020.1.3,MacIntel,60,,,,,,,2,media/dinb.png,2,Symb,u,RT,0,0,1,0,1,5,1.8,5,u,1,2.318505,1,0,1,0,1,,,,,
,,,,,,,,,,,,,,,2,5,2020-12-15_09h32.59.862,Context_Learning_Pilot,2020.1.3,MacIntel,60,,,,,,,3,media/ddnb.png,2,Symb,i,RT,0,0,2,0,1,5,1.8,5,i,1,0.695925,2,0,2,0,1,,,,,
,,,,,,,,,,,,,,,2,5,2020-12-15_09h32.59.862,Context_Learning_Pilot,2020.1.3,MacIntel,60,,,,,,,0,media/djnb.png,2,Symb,h,RT,0,0,3,0,1,5,1.8,5,h,1,0.790955,3,0,3,0,1,,,,,
,,,,,,,,,,,,,,,2,5,2020-12-15_09h32.59.862,Context_Learning_Pilot,2020.1.3,MacIntel,60,,,,,,,0,media/djnb.png,1,Symb,u,RT,0,0,4,0,1,5,1.8,5,u,1,0.79936,4,0,4,0,1,,,,,
,,,,,,,,,,,,,,,2,5,2020-12-15_09h32.59.862,Context_Learning_Pilot,2020.1.3,MacIntel,60,,,,,,,3,media/ddnb.png,1,Symb,l,RT,0,0,5,0,1,5,1.8,5,l,1,0.740025,5,0,5,0,1,,,,,
,,,,,,,,,,,,,,,2,5,2020-12-15_09h32.59.862,Context_Learning_Pilot,2020.1.3,MacIntel,60,,,,,,,0,media/djnb.png,1,Symb,u,RT,0,0,6,0,1,5,1.8,5,u,1,0.692065,6,0,6,0,1,,,,,
,,,,,,,,,,,,,,,2,5,2020-12-15_09h32.59.862,Context_Learning_Pilot,2020.1.3,MacIntel,60,,,,,,,2,media/dinb.png,1,Symb,h,RT,0,0,7,0,1,5,1.8,5,h,1,0.86796,7,0,7,0,1,,,,,
,,,,,,,,,,,,,,,2,5,2020-12-15_09h32.59.862,Context_Learning_Pilot,2020.1.3,MacIntel,60,,,,,,,3,media/ddnb.png,1,Symb,l,RT,0,0,8,0,1,5,1.8,5,i,0,1.054875,8,0,8,0,1,,,,,
,,,,,,,,,,,,,,,2,5,2020-12-15_09h32.59.862,Context_Learning_Pilot,2020.1.3,MacIntel,60,,,,,,,2,media/dinb.png,2,Symb,u,RT,0,0,9,0,1,5,1.8,5,u,1,1.34229,9,0,9,0,1,,,,,
,,,,,,,,,,,,,,,2,5,2020-12-15_09h32.59.862,Context_Learning_Pilot,2020.1.3,MacIntel,60,,,,,,,3,media/ddnb.png,2,Symb,i,RT,0,0,10,0,1,5,1.8,5,i,1,0.87244,10,0,10,0,1,,,,,
,,,,,,,,,,,,,,,2,5,2020-12-15_09h32.59.862,Context_Learning_Pilot,2020.1.3,MacIntel,60,,,,,,,0,media/djnb.png,2,Symb,h,RT,0,0,11,0,1,5,1.8,5,h,1,0.671985,11,0,11,0,1,,,,,
,,,,,,,,,,,,,,,2,5,2020-12-15_09h32.59.862,Context_Learning_Pilot,2020.1.3,MacIntel,60,,,,,,,1,media/dnnb.png,2,Symb,l,RT,0,0,12,0,1,5,1.8,5,l,1,0.746555,12,0,12,0,1,,,,,
,,,,,,,,,,,,,,,2,5,2020-12-15_09h32.59.862,Context_Learning_Pilot,2020.1.3,MacIntel,60,,,,,,,1,media/dnnb.png,1,Symb,i,RT,0,0,13,0,1,5,1.8,5,i,1,0.68558,13,0,13,0,1,,,,,
,,,,,,,,,,,,,,,2,5,2020-12-15_09h32.59.862,Context_Learning_Pilot,2020.1.3,MacIntel,60,,,,,,,1,media/dnnb.png,2,Symb,l,RT,0,0,14,0,1,5,1.8,5,l,1,0.772155,14,0,14,0,1,,,,,
,,,,,,,,,,,,,,,2,5,2020-12-15_09h32.59.862,Context_Learning_Pilot,2020.1.3,MacIntel,60,,,,,,,2,media/dinb.png,1,Symb,h,RT,0,0,15,0,1,5,1.8,5,h,1,0.74663,15,0,15,0,1,,,,,
,,,,,,,,,,,,,,,2,5,2020-12-15_09h32.59.862,Context_Learning_Pilot,2020.1.3,MacIntel,60,,,,,,,0,media/djnb.png,2,Symb,h,RT,0,0,16,0,1,5,1.8,5,u,0,0.762975,16,0,16,0,1,,,,,
,,,,,,,,,,,,,,,2,5,2020-12-15_09h32.59.862,Context_Learning_Pilot,2020.1.3,MacIntel,60,,,,,,,3,media/ddnb.png,2,Symb,i,RT,0,0,17,0,1,5,1.8,5,i,1,0.857575,17,0,17,0,1,,,,,
,,,,,,,,,,,,,,,2,5,2020-12-15_09h32.59.862,Context_Learning_Pilot,2020.1.3,MacIntel,60,,,,,,,3,media/ddnb.png,2,Symb,i,RT,0,0,18,0,1,5,1.8,5,i,1,0.764505,18,0,18,0,1,,,,,
,,,,,,,,,,,,,,,2,5,2020-12-15_09h32.59.862,Context_Learning_Pilot,2020.1.3,MacIntel,60,,,,,,,2,media/dinb.png,1,Symb,h,RT,0,0,19,0,1,5,1.8,5,h,1,0.685075,19,0,19,0,1,,,,,
,,,,,,,,,,,,,,,2,5,2020-12-15_09h32.59.862,Context_Learning_Pilot,2020.1.3,MacIntel,60,,,,,,,1,media/dnnb.png,1,Symb,i,RT,0,0,20,0,1,5,1.8,5,i,1,1.499755,20,0,20,0,1,,,,,
,,,,,,,,,,,,,,,2,5,2020-12-15_09h32.59.862,Context_Learning_Pilot,2020.1.3,MacIntel,60,,,,,,,1,media/dnnb.png,1,Symb,i,RT,0,0,21,0,1,5,1.8,5,i,1,0.596415,21,0,21,0,1,,,,,
,,,,,,,,,,,,,,,2,5,2020-12-15_09h32.59.862,Context_Learning_Pilot,2020.1.3,MacIntel,60,,,,,,,1,media/dnnb.png,2,Symb,l,RT,0,0,22,0,1,5,1.8,5,l,1,0.53522,22,0,22,0,1,,,,,
,,,,,,,,,,,,,,,2,5,2020-12-15_09h32.59.862,Context_Learning_Pilot,2020.1.3,MacIntel,60,,,,,,,0,media/djnb.png,1,Symb,u,RT,0,0,23,0,1,5,1.8,5,u,1,0.798275,23,0,23,0,1,,,,,
,,,,,,,,,,,,,,,2,5,2020-12-15_09h32.59.862,Context_Learning_Pilot,2020.1.3,MacIntel,60,,,,,,,3,media/ddnb.png,1,Symb,l,RT,0,0,24,0,1,5,1.8,5,i,0,0.80726,24,0,24,0,1,,,,,
,,,,,,,,,,,,,,,2,5,2020-12-15_09h32.59.862,Context_Learning_Pilot,2020.1.3,MacIntel,60,,,,,,,1,media/dnnb.png,2,Symb,l,RT,0,0,25,0,1,5,1.8,5,l,1,0.66536,25,0,25,0,1,,,,,
,,,,,,,,,,,,,,,2,5,2020-12-15_09h32.59.862,Context_Learning_Pilot,2020.1.3,MacIntel,60,,,,,,,3,media/ddnb.png,1,Symb,l,RT,0,0,26,0,1,5,1.8,5,l,1,0.720045,26,0,26,0,1,,,,,
,,,,,,,,,,,,,,,2,5,2020-12-15_09h32.59.862,Context_Learning_Pilot,2020.1.3,MacIntel,60,,,,,,,2,media/dinb.png,2,Symb,u,RT,0,0,27,0,1,5,1.8,5,u,1,3.113225,27,0,27,0,1,,,,,
,,,,,,,,,,,,,,,2,5,2020-12-15_09h32.59.862,Context_Learning_Pilot,2020.1.3,MacIntel,60,,,,,,,2,media/dinb.png,1,Symb,h,RT,0,0,28,0,1,5,1.8,5,h,1,0.6373,28,0,28,0,1,,,,,
,,,,,,,,,,,,,,,2,5,2020-12-15_09h32.59.862,Context_Learning_Pilot,2020.1.3,MacIntel,60,,,,,,,0,media/djnb.png,1,Symb,u,RT,0,0,29,0,1,5,1.8,5,u,1,1.56857,29,0,29,0,1,,,,,
,,,,,,,,,,,,,,,2,5,2020-12-15_09h32.59.862,Context_Learning_Pilot,2020.1.3,MacIntel,60,,,,,,,2,media/dinb.png,2,Symb,u,RT,0,0,30,0,1,5,1.8,5,u,1,0.969935,30,0,30,0,1,,,,,
,,,,,,,,,,,,,,,2,5,2020-12-15_09h32.59.862,Context_Learning_Pilot,2020.1.3,MacIntel,60,,,,,,,0,media/djnb.png,2,Symb,h,RT,0,0,31,0,1,5,1.8,5,l,0,1.1556,31,0,31,0,1,,,,,
,,,,,,,,,,,,,,,2,5,2020-12-15_09h32.59.862,Context_Learning_Pilot,2020.1.3,MacIntel,60,,,,,,,3,media/ddnb.png,1,Symb,l,RT,0,0,32,0,1,5,1.8,5,l,1,0.669865,32,0,32,0,1,,,,,
,,,,,,,,,,,,,,,2,5,2020-12-15_09h32.59.862,Context_Learning_Pilot,2020.1.3,MacIntel,60,,,,,,,3,media/ddnb.png,1,Symb,l,RT,0,0,33,0,1,5,1.8,5,l,1,1.587925,33,0,33,0,1,,,,,
,,,,,,,,,,,,,,,2,5,2020-12-15_09h32.59.862,Context_Learning_Pilot,2020.1.3,MacIntel,60,,,,,,,0,media/djnb.png,2,Symb,h,RT,0,0,34,0,1,5,1.8,5,h,1,0.68543,34,0,34,0,1,,,,,
,,,,,,,,,,,,,,,2,5,2020-12-15_09h32.59.862,Context_Learning_Pilot,2020.1.3,MacIntel,60,,,,,,,2,media/dinb.png,2,Symb,u,RT,0,0,35,0,1,5,1.8,5,u,1,0.88031,35,0,35,0,1,,,,,
,,,,,,,,,,,,,,,2,5,2020-12-15_09h32.59.862,Context_Learning_Pilot,2020.1.3,MacIntel,60,,,,,,,1,media/dnnb.png,2,Symb,l,RT,0,0,36,0,1,5,1.8,5,l,1,0.73296,36,0,36,0,1,,,,,
,,,,,,,,,,,,,,,2,5,2020-12-15_09h32.59.862,Context_Learning_Pilot,2020.1.3,MacIntel,60,,,,,,,1,media/dnnb.png,1,Symb,i,RT,0,0,37,0,1,5,1.8,5,i,1,0.647885,37,0,37,0,1,,,,,
,,,,,,,,,,,,,,,2,5,2020-12-15_09h32.59.862,Context_Learning_Pilot,2020.1.3,MacIntel,60,,,,,,,0,media/djnb.png,2,Symb,h,RT,0,0,38,0,1,5,1.8,5,h,1,1.48964,38,0,38,0,1,,,,,
,,,,,,,,,,,,,,,2,5,2020-12-15_09h32.59.862,Context_Learning_Pilot,2020.1.3,MacIntel,60,,,,,,,1,media/dnnb.png,1,Symb,i,RT,0,0,39,0,1,5,1.8,5,l,0,1.04896,39,0,39,0,1,,,,,
,,,,,,,,,,,,,,,2,5,2020-12-15_09h32.59.862,Context_Learning_Pilot,2020.1.3,MacIntel,60,,,,,,,2,media/dinb.png,2,Symb,u,RT,0,0,40,0,1,5,1.8,5,u,1,1.148775,40,0,40,0,1,,,,,
,,,,,,,,,,,,,,,2,5,2020-12-15_09h32.59.862,Context_Learning_Pilot,2020.1.3,MacIntel,60,,,,,,,1,media/dnnb.png,2,Symb,l,RT,0,0,41,0,1,5,1.8,5,l,1,0.81885,41,0,41,0,1,,,,,
,,,,,,,,,,,,,,,2,5,2020-12-15_09h32.59.862,Context_Learning_Pilot,2020.1.3,MacIntel,60,,,,,,,0,media/djnb.png,1,Symb,u,RT,0,0,42,0,1,5,1.8,5,u,1,1.787775,42,0,42,0,1,,,,,
,,,,,,,,,,,,,,,2,5,2020-12-15_09h32.59.862,Context_Learning_Pilot,2020.1.3,MacIntel,60,,,,,,,3,media/ddnb.png,2,Symb,i,RT,0,0,43,0,1,5,1.8,5,i,1,0.815885,43,0,43,0,1,,,,,
,,,,,,,,,,,,,,,2,5,2020-12-15_09h32.59.862,Context_Learning_Pilot,2020.1.3,MacIntel,60,,,,,,,3,media/ddnb.png,2,Symb,i,RT,0,0,44,0,1,5,1.8,5,i,1,0.554405,44,0,44,0,1,,,,,
,,,,,,,,,,,,,,,2,5,2020-12-15_09h32.59.862,Context_Learning_Pilot,2020.1.3,MacIntel,60,,,,,,,2,media/dinb.png,1,Symb,h,RT,0,0,45,0,1,5,1.8,5,h,1,3.27047,45,0,45,0,1,,,,,
,,,,,,,,,,,,,,,2,5,2020-12-15_09h32.59.862,Context_Learning_Pilot,2020.1.3,MacIntel,60,,,,,,,0,media/djnb.png,1,Symb,u,RT,0,0,46,0,1,5,1.8,5,u,1,6.82176,46,0,46,0,1,,,,,
,,,,,,,,,,,,,,,2,5,2020-12-15_09h32.59.862,Context_Learning_Pilot,2020.1.3,MacIntel,60,,,,,,,2,media/dinb.png,1,Symb,h,RT,0,0,47,0,1,5,1.8,5,h,1,0.84022,47,0,47,0,1,,,,,
,,,,,,,,,,,,,,,2,5,2020-12-15_09h32.59.862,Context_Learning_Pilot,2020.1.3,MacIntel,60,,,,,,,1,media/dnnb.png,1,Symb,i,RT,0,0,48,0,1,5,1.8,5,i,1,0.71465,48,0,48,0,1,,,,,
,,,,,,,,,,,,,,,2,5,2020-12-15_09h32.59.862,Context_Learning_Pilot,2020.1.3,MacIntel,60,,,,,,,2,media/dinb.png,1,Symb,h,RT,0,0,49,0,1,5,1.8,5,h,1,1.166345,49,0,49,0,1,,,,,
,,,,,,,,,,,,,,,2,5,2020-12-15_09h32.59.862,Context_Learning_Pilot,2020.1.3,MacIntel,60,,,,,,,1,media/dnnb.png,1,Symb,i,RT,0,0,50,0,1,5,1.8,5,i,1,0.80295,50,0,50,0,1,,,,,
,,,,,,,,,,,,,,,2,5,2020-12-15_09h32.59.862,Context_Learning_Pilot,2020.1.3,MacIntel,60,,,,,,,2,media/dinb.png,1,Symb,h,RT,0,0,51,0,1,5,1.8,5,h,1,0.74791,51,0,51,0,1,,,,,
,,,,,,,,,,,,,,,2,5,2020-12-15_09h32.59.862,Context_Learning_Pilot,2020.1.3,MacIntel,60,,,,,,,1,media/dnnb.png,2,Symb,l,RT,0,0,52,0,1,5,1.8,5,l,1,0.570955,52,0,52,0,1,,,,,
,,,,,,,,,,,,,,,2,5,2020-12-15_09h32.59.862,Context_Learning_Pilot,2020.1.3,MacIntel,60,,,,,,,0,media/djnb.png,1,Symb,u,RT,0,0,53,0,1,5,1.8,5,u,1,0.915105,53,0,53,0,1,,,,,
,,,,,,,,,,,,,,,2,5,2020-12-15_09h32.59.862,Context_Learning_Pilot,2020.1.3,MacIntel,60,,,,,,,2,media/dinb.png,2,Symb,u,RT,0,0,54,0,1,5,1.8,5,u,1,1.08256,54,0,54,0,1,,,,,
,,,,,,,,,,,,,,,2,5,2020-12-15_09h32.59.862,Context_Learning_Pilot,2020.1.3,MacIntel,60,,,,,,,3,media/ddnb.png,2,Symb,i,RT,0,0,55,0,1,5,1.8,5,i,1,0.711295,55,0,55,0,1,,,,,
,,,,,,,,,,,,,,,2,5,2020-12-15_09h32.59.862,Context_Learning_Pilot,2020.1.3,MacIntel,60,,,,,,,2,media/dinb.png,2,Symb,u,RT,0,0,56,0,1,5,1.8,5,u,1,0.745025,56,0,56,0,1,,,,,
,,,,,,,,,,,,,,,2,5,2020-12-15_09h32.59.862,Context_Learning_Pilot,2020.1.3,MacIntel,60,,,,,,,0,media/djnb.png,2,Symb,h,RT,0,0,57,0,1,5,1.8,5,h,1,0.631505,57,0,57,0,1,,,,,
,,,,,,,,,,,,,,,2,5,2020-12-15_09h32.59.862,Context_Learning_Pilot,2020.1.3,MacIntel,60,,,,,,,3,media/ddnb.png,1,Symb,l,RT,0,0,58,0,1,5,1.8,5,l,1,0.68962,58,0,58,0,1,,,,,
,,,,,,,,,,,,,,,2,5,2020-12-15_09h32.59.862,Context_Learning_Pilot,2020.1.3,MacIntel,60,,,,,,,0,media/djnb.png,2,Symb,h,RT,0,0,59,0,1,5,1.8,5,h,1,0.676975,59,0,59,0,1,,,,,
,,,,,,,,,,,,,,,2,5,2020-12-15_09h32.59.862,Context_Learning_Pilot,2020.1.3,MacIntel,60,,,,,,,3,media/ddnb.png,2,Symb,i,RT,0,0,60,0,1,5,1.8,5,i,1,0.68594,60,0,60,0,1,,,,,
,,,,,,,,,,,,,,,2,5,2020-12-15_09h32.59.862,Context_Learning_Pilot,2020.1.3,MacIntel,60,,,,,,,0,media/djnb.png,1,Symb,u,RT,0,0,61,0,1,5,1.8,5,h,0,0.85906,61,0,61,0,1,,,,,
,,,,,,,,,,,,,,,2,5,2020-12-15_09h32.59.862,Context_Learning_Pilot,2020.1.3,MacIntel,60,,,,,,,3,media/ddnb.png,1,Symb,l,RT,0,0,62,0,1,5,1.8,5,l,1,1.325005,62,0,62,0,1,,,,,
,,,,,,,,,,,,,,,2,5,2020-12-15_09h32.59.862,Context_Learning_Pilot,2020.1.3,MacIntel,60,,,,,,,1,media/dnnb.png,2,Symb,l,RT,0,0,63,0,1,5,1.8,5,l,1,0.67459,63,0,63,0,1,,,,,
,,,,,,,,,,,,,,,2,5,2020-12-15_09h32.59.862,Context_Learning_Pilot,2020.1.3,MacIntel,60,,,,,,,3,media/ddnb.png,2,Symb,i,RT,0,0,64,0,1,5,1.8,5,i,1,0.665105,64,0,64,0,1,,,,,
,,,,,,,,,,,,,,,2,5,2020-12-15_09h32.59.862,Context_Learning_Pilot,2020.1.3,MacIntel,60,,,,,,,2,media/dinb.png,2,Symb,u,RT,0,0,65,0,1,5,1.8,5,u,1,0.84778,65,0,65,0,1,,,,,
,,,,,,,,,,,,,,,2,5,2020-12-15_09h32.59.862,Context_Learning_Pilot,2020.1.3,MacIntel,60,,,,,,,2,media/dinb.png,1,Symb,h,RT,0,0,66,0,1,5,1.8,5,h,1,1.025305,66,0,66,0,1,,,,,
,,,,,,,,,,,,,,,2,5,2020-12-15_09h32.59.862,Context_Learning_Pilot,2020.1.3,MacIntel,60,,,,,,,1,media/dnnb.png,2,Symb,l,RT,0,0,67,0,1,5,1.8,5,l,1,1.78001,67,0,67,0,1,,,,,
,,,,,,,,,,,,,,,2,5,2020-12-15_09h32.59.862,Context_Learning_Pilot,2020.1.3,MacIntel,60,,,,,,,1,media/dnnb.png,1,Symb,i,RT,0,0,68,0,1,5,1.8,5,i,1,0.70687,68,0,68,0,1,,,,,
,,,,,,,,,,,,,,,2,5,2020-12-15_09h32.59.862,Context_Learning_Pilot,2020.1.3,MacIntel,60,,,,,,,0,media/djnb.png,1,Symb,u,RT,0,0,69,0,1,5,1.8,5,u,1,0.732545,69,0,69,0,1,,,,,
,,,,,,,,,,,,,,,2,5,2020-12-15_09h32.59.862,Context_Learning_Pilot,2020.1.3,MacIntel,60,,,,,,,1,media/dnnb.png,2,Symb,l,RT,0,0,70,0,1,5,1.8,5,l,1,1.086975,70,0,70,0,1,,,,,
,,,,,,,,,,,,,,,2,5,2020-12-15_09h32.59.862,Context_Learning_Pilot,2020.1.3,MacIntel,60,,,,,,,0,media/djnb.png,1,Symb,u,RT,0,0,71,0,1,5,1.8,5,u,1,0.75271,71,0,71,0,1,,,,,
,,,,,,,,,,,,,,,2,5,2020-12-15_09h32.59.862,Context_Learning_Pilot,2020.1.3,MacIntel,60,,,,,,,3,media/ddnb.png,2,Symb,i,RT,0,0,72,0,1,5,1.8,5,i,1,1.09132,72,0,72,0,1,,,,,
,,,,,,,,,,,,,,,2,5,2020-12-15_09h32.59.862,Context_Learning_Pilot,2020.1.3,MacIntel,60,,,,,,,2,media/dinb.png,2,Symb,u,RT,0,0,73,0,1,5,1.8,5,u,1,0.904005,73,0,73,0,1,,,,,
,,,,,,,,,,,,,,,2,5,2020-12-15_09h32.59.862,Context_Learning_Pilot,2020.1.3,MacIntel,60,,,,,,,3,media/ddnb.png,1,Symb,l,RT,0,0,74,0,1,5,1.8,5,l,1,0.697275,74,0,74,0,1,,,,,
,,,,,,,,,,,,,,,2,5,2020-12-15_09h32.59.862,Context_Learning_Pilot,2020.1.3,MacIntel,60,,,,,,,2,media/dinb.png,1,Symb,h,RT,0,0,75,0,1,5,1.8,5,h,1,1.18979,75,0,75,0,1,,,,,
,,,,,,,,,,,,,,,2,5,2020-12-15_09h32.59.862,Context_Learning_Pilot,2020.1.3,MacIntel,60,,,,,,,0,media/djnb.png,2,Symb,h,RT,0,0,76,0,1,5,1.8,5,u,0,0.768745,76,0,76,0,1,,,,,
,,,,,,,,,,,,,,,2,5,2020-12-15_09h32.59.862,Context_Learning_Pilot,2020.1.3,MacIntel,60,,,,,,,0,media/djnb.png,2,Symb,h,RT,0,0,77,0,1,5,1.8,5,h,1,0.775635,77,0,77,0,1,,,,,
,,,,,,,,,,,,,,,2,5,2020-12-15_09h32.59.862,Context_Learning_Pilot,2020.1.3,MacIntel,60,,,,,,,3,media/ddnb.png,1,Symb,l,RT,0,0,78,0,1,5,1.8,5,l,1,0.660235,78,0,78,0,1,,,,,
,,,,,,,,,,,,,,,2,5,2020-12-15_09h32.59.862,Context_Learning_Pilot,2020.1.3,MacIntel,60,,,,,,,1,media/dnnb.png,1,Symb,i,RT,0,0,79,0,1,5,1.8,5,l,0,0.567655,79,0,79,0,1,,,,,
,,,,,,,,,,,,,,,2,5,2020-12-15_09h32.59.862,Context_Learning_Pilot,2020.1.3,MacIntel,60,,,,,,,2,media/dinb.png,2,Symb,u,RT,0,0,80,0,1,5,1.8,5,u,1,0.88325,80,0,80,0,1,,,,,
,,,,,,,,,,,,,,,2,5,2020-12-15_09h32.59.862,Context_Learning_Pilot,2020.1.3,MacIntel,60,,,,,,,0,media/djnb.png,2,Symb,h,RT,0,0,81,0,1,5,1.8,5,h,1,0.88234,81,0,81,0,1,,,,,
,,,,,,,,,,,,,,,2,5,2020-12-15_09h32.59.862,Context_Learning_Pilot,2020.1.3,MacIntel,60,,,,,,,0,media/djnb.png,2,Symb,h,RT,0,0,82,0,1,5,1.8,5,h,1,0.597135,82,0,82,0,1,,,,,
,,,,,,,,,,,,,,,2,5,2020-12-15_09h32.59.862,Context_Learning_Pilot,2020.1.3,MacIntel,60,,,,,,,1,media/dnnb.png,1,Symb,i,RT,0,0,83,0,1,5,1.8,5,i,1,0.76955,83,0,83,0,1,,,,,
,,,,,,,,,,,,,,,2,5,2020-12-15_09h32.59.862,Context_Learning_Pilot,2020.1.3,MacIntel,60,,,,,,,2,media/dinb.png,1,Symb,h,RT,0,0,84,0,1,5,1.8,5,h,1,0.81489,84,0,84,0,1,,,,,
,,,,,,,,,,,,,,,2,5,2020-12-15_09h32.59.862,Context_Learning_Pilot,2020.1.3,MacIntel,60,,,,,,,0,media/djnb.png,1,Symb,u,RT,0,0,85,0,1,5,1.8,5,u,1,0.78232,85,0,85,0,1,,,,,
,,,,,,,,,,,,,,,2,5,2020-12-15_09h32.59.862,Context_Learning_Pilot,2020.1.3,MacIntel,60,,,,,,,3,media/ddnb.png,1,Symb,l,RT,0,0,86,0,1,5,1.8,5,l,1,0.78678,86,0,86,0,1,,,,,
,,,,,,,,,,,,,,,2,5,2020-12-15_09h32.59.862,Context_Learning_Pilot,2020.1.3,MacIntel,60,,,,,,,1,media/dnnb.png,2,Symb,l,RT,0,0,87,0,1,5,1.8,5,l,1,0.95353,87,0,87,0,1,,,,,
,,,,,,,,,,,,,,,2,5,2020-12-15_09h32.59.862,Context_Learning_Pilot,2020.1.3,MacIntel,60,,,,,,,2,media/dinb.png,2,Symb,u,RT,0,0,88,0,1,5,1.8,5,u,1,0.799385,88,0,88,0,1,,,,,
,,,,,,,,,,,,,,,2,5,2020-12-15_09h32.59.862,Context_Learning_Pilot,2020.1.3,MacIntel,60,,,,,,,3,media/ddnb.png,2,Symb,i,RT,0,0,89,0,1,5,1.8,5,i,1,0.671725,89,0,89,0,1,,,,,
,,,,,,,,,,,,,,,2,5,2020-12-15_09h32.59.862,Context_Learning_Pilot,2020.1.3,MacIntel,60,,,,,,,0,media/djnb.png,1,Symb,u,RT,0,0,90,0,1,5,1.8,5,u,1,0.73075,90,0,90,0,1,,,,,
,,,,,,,,,,,,,,,2,5,2020-12-15_09h32.59.862,Context_Learning_Pilot,2020.1.3,MacIntel,60,,,,,,,3,media/ddnb.png,2,Symb,i,RT,0,0,91,0,1,5,1.8,5,i,1,0.85083,91,0,91,0,1,,,,,
,,,,,,,,,,,,,,,2,5,2020-12-15_09h32.59.862,Context_Learning_Pilot,2020.1.3,MacIntel,60,,,,,,,2,media/dinb.png,1,Symb,h,RT,0,0,92,0,1,5,1.8,5,h,1,0.816185,92,0,92,0,1,,,,,
,,,,,,,,,,,,,,,2,5,2020-12-15_09h32.59.862,Context_Learning_Pilot,2020.1.3,MacIntel,60,,,,,,,3,media/ddnb.png,1,Symb,l,RT,0,0,93,0,1,5,1.8,5,l,1,0.76943,93,0,93,0,1,,,,,
,,,,,,,,,,,,,,,2,5,2020-12-15_09h32.59.862,Context_Learning_Pilot,2020.1.3,MacIntel,60,,,,,,,1,media/dnnb.png,2,Symb,l,RT,0,0,94,0,1,5,1.8,5,l,1,0.807065,94,0,94,0,1,,,,,
,,,,,,,,,,,,,,,2,5,2020-12-15_09h32.59.862,Context_Learning_Pilot,2020.1.3,MacIntel,60,,,,,,,1,media/dnnb.png,1,Symb,i,RT,0,0,95,0,1,5,1.8,5,i,1,0.66081,95,0,95,0,1,,,,,
,,,,,,,,,,,,,,,2,5,2020-12-15_09h32.59.862,Context_Learning_Pilot,2020.1.3,MacIntel,60,,,,,,,,,,,,,,,,,,,,,,,,,,,,,4,0,4,0,1
,,,,,,,,,,,,,,,2,5,2020-12-15_09h32.59.862,Context_Learning_Pilot,2020.1.3,MacIntel,60,,,,,h,31.815755,3,media/ddnb.png,2,Symb,i,RT,0,0,0,0,1,6,1.8,5,i,1,1.25406,0,0,0,0,1,,,,,
,,,,,,,,,,,,,,,2,5,2020-12-15_09h32.59.862,Context_Learning_Pilot,2020.1.3,MacIntel,60,,,,,,,1,media/dnnb.png,1,Symb,i,RT,0,0,1,0,1,6,1.8,5,i,1,0.788475,1,0,1,0,1,,,,,
,,,,,,,,,,,,,,,2,5,2020-12-15_09h32.59.862,Context_Learning_Pilot,2020.1.3,MacIntel,60,,,,,,,3,media/ddnb.png,1,Symb,l,RT,0,0,2,0,1,6,1.8,5,l,1,0.679125,2,0,2,0,1,,,,,
,,,,,,,,,,,,,,,2,5,2020-12-15_09h32.59.862,Context_Learning_Pilot,2020.1.3,MacIntel,60,,,,,,,1,media/dnnb.png,2,Symb,l,RT,0,0,3,0,1,6,1.8,5,l,1,0.875655,3,0,3,0,1,,,,,
,,,,,,,,,,,,,,,2,5,2020-12-15_09h32.59.862,Context_Learning_Pilot,2020.1.3,MacIntel,60,,,,,,,2,media/dinb.png,2,Symb,u,RT,0,0,4,0,1,6,1.8,5,u,1,1.41135,4,0,4,0,1,,,,,
,,,,,,,,,,,,,,,2,5,2020-12-15_09h32.59.862,Context_Learning_Pilot,2020.1.3,MacIntel,60,,,,,,,2,media/dinb.png,1,Symb,h,RT,0,0,5,0,1,6,1.8,5,h,1,0.543225,5,0,5,0,1,,,,,
,,,,,,,,,,,,,,,2,5,2020-12-15_09h32.59.862,Context_Learning_Pilot,2020.1.3,MacIntel,60,,,,,,,0,media/djnb.png,2,Symb,h,RT,0,0,6,0,1,6,1.8,5,h,1,0.715565,6,0,6,0,1,,,,,
,,,,,,,,,,,,,,,2,5,2020-12-15_09h32.59.862,Context_Learning_Pilot,2020.1.3,MacIntel,60,,,,,,,1,media/dnnb.png,1,Symb,i,RT,0,0,7,0,1,6,1.8,5,i,1,0.758325,7,0,7,0,1,,,,,
,,,,,,,,,,,,,,,2,5,2020-12-15_09h32.59.862,Context_Learning_Pilot,2020.1.3,MacIntel,60,,,,,,,0,media/djnb.png,1,Symb,u,RT,0,0,8,0,1,6,1.8,5,u,1,1.066565,8,0,8,0,1,,,,,
,,,,,,,,,,,,,,,2,5,2020-12-15_09h32.59.862,Context_Learning_Pilot,2020.1.3,MacIntel,60,,,,,,,0,media/djnb.png,1,Symb,u,RT,0,0,9,0,1,6,1.8,5,u,1,0.48747,9,0,9,0,1,,,,,
,,,,,,,,,,,,,,,2,5,2020-12-15_09h32.59.862,Context_Learning_Pilot,2020.1.3,MacIntel,60,,,,,,,0,media/djnb.png,2,Symb,h,RT,0,0,10,0,1,6,1.8,5,h,1,0.555085,10,0,10,0,1,,,,,
,,,,,,,,,,,,,,,2,5,2020-12-15_09h32.59.862,Context_Learning_Pilot,2020.1.3,MacIntel,60,,,,,,,1,media/dnnb.png,2,Symb,l,RT,0,0,11,0,1,6,1.8,5,l,1,0.75258,11,0,11,0,1,,,,,
,,,,,,,,,,,,,,,2,5,2020-12-15_09h32.59.862,Context_Learning_Pilot,2020.1.3,MacIntel,60,,,,,,,2,media/dinb.png,1,Symb,h,RT,0,0,12,0,1,6,1.8,5,h,1,0.705405,12,0,12,0,1,,,,,
,,,,,,,,,,,,,,,2,5,2020-12-15_09h32.59.862,Context_Learning_Pilot,2020.1.3,MacIntel,60,,,,,,,3,media/ddnb.png,1,Symb,l,RT,0,0,13,0,1,6,1.8,5,l,1,0.908625,13,0,13,0,1,,,,,
,,,,,,,,,,,,,,,2,5,2020-12-15_09h32.59.862,Context_Learning_Pilot,2020.1.3,MacIntel,60,,,,,,,2,media/dinb.png,2,Symb,u,RT,0,0,14,0,1,6,1.8,5,u,1,0.74667,14,0,14,0,1,,,,,
,,,,,,,,,,,,,,,2,5,2020-12-15_09h32.59.862,Context_Learning_Pilot,2020.1.3,MacIntel,60,,,,,,,3,media/ddnb.png,2,Symb,i,RT,0,0,15,0,1,6,1.8,5,i,1,0.66645,15,0,15,0,1,,,,,
,,,,,,,,,,,,,,,2,5,2020-12-15_09h32.59.862,Context_Learning_Pilot,2020.1.3,MacIntel,60,,,,,,,3,media/ddnb.png,1,Symb,l,RT,0,0,16,0,1,6,1.8,5,l,1,0.788525,16,0,16,0,1,,,,,
,,,,,,,,,,,,,,,2,5,2020-12-15_09h32.59.862,Context_Learning_Pilot,2020.1.3,MacIntel,60,,,,,,,2,media/dinb.png,1,Symb,h,RT,0,0,17,0,1,6,1.8,5,h,1,0.60672,17,0,17,0,1,,,,,
,,,,,,,,,,,,,,,2,5,2020-12-15_09h32.59.862,Context_Learning_Pilot,2020.1.3,MacIntel,60,,,,,,,3,media/ddnb.png,1,Symb,l,RT,0,0,18,0,1,6,1.8,5,l,1,0.937855,18,0,18,0,1,,,,,
,,,,,,,,,,,,,,,2,5,2020-12-15_09h32.59.862,Context_Learning_Pilot,2020.1.3,MacIntel,60,,,,,,,3,media/ddnb.png,2,Symb,i,RT,0,0,19,0,1,6,1.8,5,i,1,0.864325,19,0,19,0,1,,,,,
,,,,,,,,,,,,,,,2,5,2020-12-15_09h32.59.862,Context_Learning_Pilot,2020.1.3,MacIntel,60,,,,,,,0,media/djnb.png,2,Symb,h,RT,0,0,20,0,1,6,1.8,5,h,1,0.81587,20,0,20,0,1,,,,,
,,,,,,,,,,,,,,,2,5,2020-12-15_09h32.59.862,Context_Learning_Pilot,2020.1.3,MacIntel,60,,,,,,,1,media/dnnb.png,2,Symb,l,RT,0,0,21,0,1,6,1.8,5,l,1,0.638965,21,0,21,0,1,,,,,
,,,,,,,,,,,,,,,2,5,2020-12-15_09h32.59.862,Context_Learning_Pilot,2020.1.3,MacIntel,60,,,,,,,1,media/dnnb.png,1,Symb,i,RT,0,0,22,0,1,6,1.8,5,i,1,0.540045,22,0,22,0,1,,,,,
,,,,,,,,,,,,,,,2,5,2020-12-15_09h32.59.862,Context_Learning_Pilot,2020.1.3,MacIntel,60,,,,,,,0,media/djnb.png,1,Symb,u,RT,0,0,23,0,1,6,1.8,5,u,1,0.84924,23,0,23,0,1,,,,,
,,,,,,,,,,,,,,,2,5,2020-12-15_09h32.59.862,Context_Learning_Pilot,2020.1.3,MacIntel,60,,,,,,,2,media/dinb.png,2,Symb,u,RT,0,0,24,0,1,6,1.8,5,u,1,0.852755,24,0,24,0,1,,,,,
,,,,,,,,,,,,,,,2,5,2020-12-15_09h32.59.862,Context_Learning_Pilot,2020.1.3,MacIntel,60,,,,,,,2,media/dinb.png,2,Symb,u,RT,0,0,25,0,1,6,1.8,5,u,1,0.54657,25,0,25,0,1,,,,,
,,,,,,,,,,,,,,,2,5,2020-12-15_09h32.59.862,Context_Learning_Pilot,2020.1.3,MacIntel,60,,,,,,,0,media/djnb.png,2,Symb,h,RT,0,0,26,0,1,6,1.8,5,h,1,0.66868,26,0,26,0,1,,,,,
,,,,,,,,,,,,,,,2,5,2020-12-15_09h32.59.862,Context_Learning_Pilot,2020.1.3,MacIntel,60,,,,,,,3,media/ddnb.png,2,Symb,i,RT,0,0,27,0,1,6,1.8,5,i,1,0.602005,27,0,27,0,1,,,,,
,,,,,,,,,,,,,,,2,5,2020-12-15_09h32.59.862,Context_Learning_Pilot,2020.1.3,MacIntel,60,,,,,,,1,media/dnnb.png,1,Symb,i,RT,0,0,28,0,1,6,1.8,5,i,1,0.802085,28,0,28,0,1,,,,,
,,,,,,,,,,,,,,,2,5,2020-12-15_09h32.59.862,Context_Learning_Pilot,2020.1.3,MacIntel,60,,,,,,,2,media/dinb.png,1,Symb,h,RT,0,0,29,0,1,6,1.8,5,h,1,0.6336,29,0,29,0,1,,,,,
,,,,,,,,,,,,,,,2,5,2020-12-15_09h32.59.862,Context_Learning_Pilot,2020.1.3,MacIntel,60,,,,,,,1,media/dnnb.png,2,Symb,l,RT,0,0,30,0,1,6,1.8,5,l,1,0.53383,30,0,30,0,1,,,,,
,,,,,,,,,,,,,,,2,5,2020-12-15_09h32.59.862,Context_Learning_Pilot,2020.1.3,MacIntel,60,,,,,,,0,media/djnb.png,1,Symb,u,RT,0,0,31,0,1,6,1.8,5,u,1,1.62878,31,0,31,0,1,,,,,
,,,,,,,,,,,,,,,2,5,2020-12-15_09h32.59.862,Context_Learning_Pilot,2020.1.3,MacIntel,60,,,,,,,3,media/ddnb.png,2,Symb,i,RT,0,0,32,0,1,6,1.8,5,i,1,0.70823,32,0,32,0,1,,,,,
,,,,,,,,,,,,,,,2,5,2020-12-15_09h32.59.862,Context_Learning_Pilot,2020.1.3,MacIntel,60,,,,,,,2,media/dinb.png,1,Symb,h,RT,0,0,33,0,1,6,1.8,5,h,1,0.65978,33,0,33,0,1,,,,,
,,,,,,,,,,,,,,,2,5,2020-12-15_09h32.59.862,Context_Learning_Pilot,2020.1.3,MacIntel,60,,,,,,,3,media/ddnb.png,1,Symb,l,RT,0,0,34,0,1,6,1.8,5,i,0,0.75215,34,0,34,0,1,,,,,
,,,,,,,,,,,,,,,2,5,2020-12-15_09h32.59.862,Context_Learning_Pilot,2020.1.3,MacIntel,60,,,,,,,1,media/dnnb.png,1,Symb,i,RT,0,0,35,0,1,6,1.8,5,i,1,0.967375,35,0,35,0,1,,,,,
,,,,,,,,,,,,,,,2,5,2020-12-15_09h32.59.862,Context_Learning_Pilot,2020.1.3,MacIntel,60,,,,,,,1,media/dnnb.png,2,Symb,l,RT,0,0,36,0,1,6,1.8,5,l,1,0.598055,36,0,36,0,1,,,,,
,,,,,,,,,,,,,,,2,5,2020-12-15_09h32.59.862,Context_Learning_Pilot,2020.1.3,MacIntel,60,,,,,,,0,media/djnb.png,2,Symb,h,RT,0,0,37,0,1,6,1.8,5,h,1,0.59363,37,0,37,0,1,,,,,
,,,,,,,,,,,,,,,2,5,2020-12-15_09h32.59.862,Context_Learning_Pilot,2020.1.3,MacIntel,60,,,,,,,2,media/dinb.png,2,Symb,u,RT,0,0,38,0,1,6,1.8,5,h,0,0.740335,38,0,38,0,1,,,,,
,,,,,,,,,,,,,,,2,5,2020-12-15_09h32.59.862,Context_Learning_Pilot,2020.1.3,MacIntel,60,,,,,,,3,media/ddnb.png,1,Symb,l,RT,0,0,39,0,1,6,1.8,5,l,1,0.798825,39,0,39,0,1,,,,,
,,,,,,,,,,,,,,,2,5,2020-12-15_09h32.59.862,Context_Learning_Pilot,2020.1.3,MacIntel,60,,,,,,,2,media/dinb.png,2,Symb,u,RT,0,0,40,0,1,6,1.8,5,u,1,0.87392,40,0,40,0,1,,,,,
,,,,,,,,,,,,,,,2,5,2020-12-15_09h32.59.862,Context_Learning_Pilot,2020.1.3,MacIntel,60,,,,,,,0,media/djnb.png,1,Symb,u,RT,0,0,41,0,1,6,1.8,5,u,1,0.755995,41,0,41,0,1,,,,,
,,,,,,,,,,,,,,,2,5,2020-12-15_09h32.59.862,Context_Learning_Pilot,2020.1.3,MacIntel,60,,,,,,,0,media/djnb.png,2,Symb,h,RT,0,0,42,0,1,6,1.8,5,h,1,0.90596,42,0,42,0,1,,,,,
,,,,,,,,,,,,,,,2,5,2020-12-15_09h32.59.862,Context_Learning_Pilot,2020.1.3,MacIntel,60,,,,,,,1,media/dnnb.png,1,Symb,i,RT,0,0,43,0,1,6,1.8,5,i,1,0.616495,43,0,43,0,1,,,,,
,,,,,,,,,,,,,,,2,5,2020-12-15_09h32.59.862,Context_Learning_Pilot,2020.1.3,MacIntel,60,,,,,,,1,media/dnnb.png,2,Symb,l,RT,0,0,44,0,1,6,1.8,5,l,1,0.48244,44,0,44,0,1,,,,,
,,,,,,,,,,,,,,,2,5,2020-12-15_09h32.59.862,Context_Learning_Pilot,2020.1.3,MacIntel,60,,,,,,,2,media/dinb.png,1,Symb,h,RT,0,0,45,0,1,6,1.8,5,h,1,0.88996,45,0,45,0,1,,,,,
,,,,,,,,,,,,,,,2,5,2020-12-15_09h32.59.862,Context_Learning_Pilot,2020.1.3,MacIntel,60,,,,,,,3,media/ddnb.png,2,Symb,i,RT,0,0,46,0,1,6,1.8,5,u,0,0.639115,46,0,46,0,1,,,,,
,,,,,,,,,,,,,,,2,5,2020-12-15_09h32.59.862,Context_Learning_Pilot,2020.1.3,MacIntel,60,,,,,,,0,media/djnb.png,1,Symb,u,RT,0,0,47,0,1,6,1.8,5,u,1,0.826845,47,0,47,0,1,,,,,
,,,,,,,,,,,,,,,2,5,2020-12-15_09h32.59.862,Context_Learning_Pilot,2020.1.3,MacIntel,60,,,,,,,1,media/dnnb.png,2,Symb,l,RT,0,0,48,0,1,6,1.8,5,l,1,1.34599,48,0,48,0,1,,,,,
,,,,,,,,,,,,,,,2,5,2020-12-15_09h32.59.862,Context_Learning_Pilot,2020.1.3,MacIntel,60,,,,,,,3,media/ddnb.png,2,Symb,i,RT,0,0,49,0,1,6,1.8,5,i,1,0.63117,49,0,49,0,1,,,,,
,,,,,,,,,,,,,,,2,5,2020-12-15_09h32.59.862,Context_Learning_Pilot,2020.1.3,MacIntel,60,,,,,,,2,media/dinb.png,2,Symb,u,RT,0,0,50,0,1,6,1.8,5,u,1,1.045725,50,0,50,0,1,,,,,
,,,,,,,,,,,,,,,2,5,2020-12-15_09h32.59.862,Context_Learning_Pilot,2020.1.3,MacIntel,60,,,,,,,1,media/dnnb.png,1,Symb,i,RT,0,0,51,0,1,6,1.8,5,i,1,0.88074,51,0,51,0,1,,,,,
,,,,,,,,,,,,,,,2,5,2020-12-15_09h32.59.862,Context_Learning_Pilot,2020.1.3,MacIntel,60,,,,,,,1,media/dnnb.png,1,Symb,i,RT,0,0,52,0,1,6,1.8,5,i,1,0.561485,52,0,52,0,1,,,,,
,,,,,,,,,,,,,,,2,5,2020-12-15_09h32.59.862,Context_Learning_Pilot,2020.1.3,MacIntel,60,,,,,,,2,media/dinb.png,1,Symb,h,RT,0,0,53,0,1,6,1.8,5,h,1,0.674235,53,0,53,0,1,,,,,
,,,,,,,,,,,,,,,2,5,2020-12-15_09h32.59.862,Context_Learning_Pilot,2020.1.3,MacIntel,60,,,,,,,3,media/ddnb.png,1,Symb,l,RT,0,0,54,0,1,6,1.8,5,l,1,0.753495,54,0,54,0,1,,,,,
,,,,,,,,,,,,,,,2,5,2020-12-15_09h32.59.862,Context_Learning_Pilot,2020.1.3,MacIntel,60,,,,,,,0,media/djnb.png,1,Symb,u,RT,0,0,55,0,1,6,1.8,5,u,1,0.67132,55,0,55,0,1,,,,,
,,,,,,,,,,,,,,,2,5,2020-12-15_09h32.59.862,Context_Learning_Pilot,2020.1.3,MacIntel,60,,,,,,,3,media/ddnb.png,1,Symb,l,RT,0,0,56,0,1,6,1.8,5,l,1,1.521575,56,0,56,0,1,,,,,
,,,,,,,,,,,,,,,2,5,2020-12-15_09h32.59.862,Context_Learning_Pilot,2020.1.3,MacIntel,60,,,,,,,0,media/djnb.png,2,Symb,h,RT,0,0,57,0,1,6,1.8,5,u,0,1.707925,57,0,57,0,1,,,,,
,,,,,,,,,,,,,,,2,5,2020-12-15_09h32.59.862,Context_Learning_Pilot,2020.1.3,MacIntel,60,,,,,,,0,media/djnb.png,1,Symb,u,RT,0,0,58,0,1,6,1.8,5,u,1,0.630605,58,0,58,0,1,,,,,
,,,,,,,,,,,,,,,2,5,2020-12-15_09h32.59.862,Context_Learning_Pilot,2020.1.3,MacIntel,60,,,,,,,2,media/dinb.png,1,Symb,h,RT,0,0,59,0,1,6,1.8,5,h,1,3.075805,59,0,59,0,1,,,,,
,,,,,,,,,,,,,,,2,5,2020-12-15_09h32.59.862,Context_Learning_Pilot,2020.1.3,MacIntel,60,,,,,,,3,media/ddnb.png,2,Symb,i,RT,0,0,60,0,1,6,1.8,5,i,1,0.734345,60,0,60,0,1,,,,,
,,,,,,,,,,,,,,,2,5,2020-12-15_09h32.59.862,Context_Learning_Pilot,2020.1.3,MacIntel,60,,,,,,,1,media/dnnb.png,2,Symb,l,RT,0,0,61,0,1,6,1.8,5,l,1,0.632605,61,0,61,0,1,,,,,
,,,,,,,,,,,,,,,2,5,2020-12-15_09h32.59.862,Context_Learning_Pilot,2020.1.3,MacIntel,60,,,,,,,2,media/dinb.png,2,Symb,u,RT,0,0,62,0,1,6,1.8,5,u,1,0.82695,62,0,62,0,1,,,,,
,,,,,,,,,,,,,,,2,5,2020-12-15_09h32.59.862,Context_Learning_Pilot,2020.1.3,MacIntel,60,,,,,,,0,media/djnb.png,2,Symb,h,RT,0,0,63,0,1,6,1.8,5,h,1,0.60958,63,0,63,0,1,,,,,
,,,,,,,,,,,,,,,2,5,2020-12-15_09h32.59.862,Context_Learning_Pilot,2020.1.3,MacIntel,60,,,,,,,3,media/ddnb.png,2,Symb,i,RT,0,0,64,0,1,6,1.8,5,i,1,0.926975,64,0,64,0,1,,,,,
,,,,,,,,,,,,,,,2,5,2020-12-15_09h32.59.862,Context_Learning_Pilot,2020.1.3,MacIntel,60,,,,,,,2,media/dinb.png,1,Symb,h,RT,0,0,65,0,1,6,1.8,5,h,1,0.75863,65,0,65,0,1,,,,,
,,,,,,,,,,,,,,,2,5,2020-12-15_09h32.59.862,Context_Learning_Pilot,2020.1.3,MacIntel,60,,,,,,,0,media/djnb.png,2,Symb,h,RT,0,0,66,0,1,6,1.8,5,h,1,1.00195,66,0,66,0,1,,,,,
,,,,,,,,,,,,,,,2,5,2020-12-15_09h32.59.862,Context_Learning_Pilot,2020.1.3,MacIntel,60,,,,,,,1,media/dnnb.png,1,Symb,i,RT,0,0,67,0,1,6,1.8,5,i,1,1.356065,67,0,67,0,1,,,,,
,,,,,,,,,,,,,,,2,5,2020-12-15_09h32.59.862,Context_Learning_Pilot,2020.1.3,MacIntel,60,,,,,,,2,media/dinb.png,1,Symb,h,RT,0,0,68,0,1,6,1.8,5,h,1,0.58908,68,0,68,0,1,,,,,
,,,,,,,,,,,,,,,2,5,2020-12-15_09h32.59.862,Context_Learning_Pilot,2020.1.3,MacIntel,60,,,,,,,2,media/dinb.png,2,Symb,u,RT,0,0,69,0,1,6,1.8,5,u,1,0.8282,69,0,69,0,1,,,,,
,,,,,,,,,,,,,,,2,5,2020-12-15_09h32.59.862,Context_Learning_Pilot,2020.1.3,MacIntel,60,,,,,,,3,media/ddnb.png,1,Symb,l,RT,0,0,70,0,1,6,1.8,5,l,1,0.85568,70,0,70,0,1,,,,,
,,,,,,,,,,,,,,,2,5,2020-12-15_09h32.59.862,Context_Learning_Pilot,2020.1.3,MacIntel,60,,,,,,,3,media/ddnb.png,1,Symb,l,RT,0,0,71,0,1,6,1.8,5,l,1,0.52248,71,0,71,0,1,,,,,
,,,,,,,,,,,,,,,2,5,2020-12-15_09h32.59.862,Context_Learning_Pilot,2020.1.3,MacIntel,60,,,,,,,0,media/djnb.png,1,Symb,u,RT,0,0,72,0,1,6,1.8,5,u,1,0.687875,72,0,72,0,1,,,,,
,,,,,,,,,,,,,,,2,5,2020-12-15_09h32.59.862,Context_Learning_Pilot,2020.1.3,MacIntel,60,,,,,,,1,media/dnnb.png,2,Symb,l,RT,0,0,73,0,1,6,1.8,5,i,0,0.697845,73,0,73,0,1,,,,,
,,,,,,,,,,,,,,,2,5,2020-12-15_09h32.59.862,Context_Learning_Pilot,2020.1.3,MacIntel,60,,,,,,,3,media/ddnb.png,2,Symb,i,RT,0,0,74,0,1,6,1.8,5,l,0,0.60393,74,0,74,0,1,,,,,
,,,,,,,,,,,,,,,2,5,2020-12-15_09h32.59.862,Context_Learning_Pilot,2020.1.3,MacIntel,60,,,,,,,0,media/djnb.png,1,Symb,u,RT,0,0,75,0,1,6,1.8,5,u,1,1.6331,75,0,75,0,1,,,,,
,,,,,,,,,,,,,,,2,5,2020-12-15_09h32.59.862,Context_Learning_Pilot,2020.1.3,MacIntel,60,,,,,,,2,media/dinb.png,2,Symb,u,RT,0,0,76,0,1,6,1.8,5,u,1,0.709305,76,0,76,0,1,,,,,
,,,,,,,,,,,,,,,2,5,2020-12-15_09h32.59.862,Context_Learning_Pilot,2020.1.3,MacIntel,60,,,,,,,1,media/dnnb.png,1,Symb,i,RT,0,0,77,0,1,6,1.8,5,i,1,0.978745,77,0,77,0,1,,,,,
,,,,,,,,,,,,,,,2,5,2020-12-15_09h32.59.862,Context_Learning_Pilot,2020.1.3,MacIntel,60,,,,,,,1,media/dnnb.png,2,Symb,l,RT,0,0,78,0,1,6,1.8,5,l,1,0.845335,78,0,78,0,1,,,,,
,,,,,,,,,,,,,,,2,5,2020-12-15_09h32.59.862,Context_Learning_Pilot,2020.1.3,MacIntel,60,,,,,,,0,media/djnb.png,2,Symb,h,RT,0,0,79,0,1,6,1.8,5,h,1,1.04633,79,0,79,0,1,,,,,
,,,,,,,,,,,,,,,2,5,2020-12-15_09h32.59.862,Context_Learning_Pilot,2020.1.3,MacIntel,60,,,,,,,1,media/dnnb.png,2,Symb,l,RT,0,0,80,0,1,6,1.8,5,l,1,0.838485,80,0,80,0,1,,,,,
,,,,,,,,,,,,,,,2,5,2020-12-15_09h32.59.862,Context_Learning_Pilot,2020.1.3,MacIntel,60,,,,,,,0,media/djnb.png,2,Symb,h,RT,0,0,81,0,1,6,1.8,5,u,0,0.75957,81,0,81,0,1,,,,,
,,,,,,,,,,,,,,,2,5,2020-12-15_09h32.59.862,Context_Learning_Pilot,2020.1.3,MacIntel,60,,,,,,,3,media/ddnb.png,2,Symb,i,RT,0,0,82,0,1,6,1.8,5,i,1,0.65783,82,0,82,0,1,,,,,
,,,,,,,,,,,,,,,2,5,2020-12-15_09h32.59.862,Context_Learning_Pilot,2020.1.3,MacIntel,60,,,,,,,2,media/dinb.png,2,Symb,u,RT,0,0,83,0,1,6,1.8,5,u,1,1.454495,83,0,83,0,1,,,,,
,,,,,,,,,,,,,,,2,5,2020-12-15_09h32.59.862,Context_Learning_Pilot,2020.1.3,MacIntel,60,,,,,,,3,media/ddnb.png,2,Symb,i,RT,0,0,84,0,1,6,1.8,5,i,1,0.661415,84,0,84,0,1,,,,,
,,,,,,,,,,,,,,,2,5,2020-12-15_09h32.59.862,Context_Learning_Pilot,2020.1.3,MacIntel,60,,,,,,,1,media/dnnb.png,1,Symb,i,RT,0,0,85,0,1,6,1.8,5,i,1,0.68689,85,0,85,0,1,,,,,
,,,,,,,,,,,,,,,2,5,2020-12-15_09h32.59.862,Context_Learning_Pilot,2020.1.3,MacIntel,60,,,,,,,3,media/ddnb.png,1,Symb,l,RT,0,0,86,0,1,6,1.8,5,l,1,1.553705,86,0,86,0,1,,,,,
,,,,,,,,,,,,,,,2,5,2020-12-15_09h32.59.862,Context_Learning_Pilot,2020.1.3,MacIntel,60,,,,,,,2,media/dinb.png,1,Symb,h,RT,0,0,87,0,1,6,1.8,5,h,1,0.895585,87,0,87,0,1,,,,,
,,,,,,,,,,,,,,,2,5,2020-12-15_09h32.59.862,Context_Learning_Pilot,2020.1.3,MacIntel,60,,,,,,,3,media/ddnb.png,1,Symb,l,RT,0,0,88,0,1,6,1.8,5,l,1,1.27177,88,0,88,0,1,,,,,
,,,,,,,,,,,,,,,2,5,2020-12-15_09h32.59.862,Context_Learning_Pilot,2020.1.3,MacIntel,60,,,,,,,0,media/djnb.png,1,Symb,u,RT,0,0,89,0,1,6,1.8,5,u,1,0.80931,89,0,89,0,1,,,,,
