Import_Stim.thisRepN,Import_Stim.thisTrialN,Import_Stim.thisN,Import_Stim.thisIndex,Import_Stim.ran,Stim,CorrResp,Ctx_color,imStim,imStim_r,imStim_g,x_pos,y_pos,Hand,Feedback,participant,session,date,expName,psychopyVersion,OS,frameRate,stim_key_map_ctx1,stim_key_map_ctx2,Instr_RT_Press.keys,Instr_RT_Press.rt,Instr_Block_Num_Press.keys,Instr_Block_Num_Press.rt,Symbol,Shape,ctx,Stim_Type,Finger,Block_Type,Remap,Repeat_Count,Trial_Count,Grp_B,Brp_R,Block_Num,Set_Prep_Time,Session,RT_Press.keys,RT_Press.corr,RT_Press.rt,RT_Iter.thisRepN,RT_Iter.thisTrialN,RT_Iter.thisN,RT_Iter.thisIndex,RT_Iter.ran,RT_Block.thisRepN,RT_Block.thisTrialN,RT_Block.thisN,RT_Block.thisIndex,RT_Block.ran,Instr_TR_Old_Press.keys,Instr_TR_Old_Press.rt,TR_Press.keys,TR_Press.corr,TR_Press.rt,TR_Feedback_Bool.thisRepN,TR_Feedback_Bool.thisTrialN,TR_Feedback_Bool.thisN,TR_Feedback_Bool.thisIndex,TR_Feedback_Bool.ran,TR_Iter.thisRepN,TR_Iter.thisTrialN,TR_Iter.thisN,TR_Iter.thisIndex,TR_Iter.ran,TR_Old_Block.thisRepN,TR_Old_Block.thisTrialN,TR_Old_Block.thisN,TR_Old_Block.thisIndex,TR_Old_Block.ran,TR_Penalty_Press.keys,TR_Penalty_Press.rt,TR_Penalty_Bool.thisRepN,TR_Penalty_Bool.thisTrialN,TR_Penalty_Bool.thisN,TR_Penalty_Bool.thisIndex,TR_Penalty_Bool.ran
0,0,0,0,1,0,h,red,media/djnb.png,media/djnb_r.png,media/djnb_g.png,-0.038,0.075,media/hand.png,media/check.png,2,6,2020-12-21_13h11.06.577,Context_Learning_Pilot,2020.1.3,MacIntel,60,,,,,,,,,,,,,,,,,,,,,,,,,,,,,,,,,,,,,,,,,,,,,,,,,,,,,,,,,,,,
0,1,1,1,1,1,u,red,media/dnnb.png,media/dnnb_r.png,media/dnnb_g.png,0.014,0.1,media/hand.png,media/cross.png,2,6,2020-12-21_13h11.06.577,Context_Learning_Pilot,2020.1.3,MacIntel,60,,,,,,,,,,,,,,,,,,,,,,,,,,,,,,,,,,,,,,,,,,,,,,,,,,,,,,,,,,,,
0,2,2,2,1,2,i,red,media/dinb.png,media/dinb_r.png,media/dinb_g.png,0.057,0.08,media/hand.png,media/check.png,2,6,2020-12-21_13h11.06.577,Context_Learning_Pilot,2020.1.3,MacIntel,60,,,,,,,,,,,,,,,,,,,,,,,,,,,,,,,,,,,,,,,,,,,,,,,,,,,,,,,,,,,,
0,3,3,3,1,3,l,red,media/ddnb.png,media/ddnb_r.png,media/ddnb_g.png,0.1,0.04,media/hand.png,media/cross.png,2,6,2020-12-21_13h11.06.577,Context_Learning_Pilot,2020.1.3,MacIntel,60,,,,,,,,,,,,,,,,,,,,,,,,,,,,,,,,,,,,,,,,,,,,,,,,,,,,,,,,,,,,
0,4,4,4,1,0,h,green,media/djnb.png,media/djnb_r.png,media/djnb_g.png,-0.038,0.075,media/hand.png,media/check.png,2,6,2020-12-21_13h11.06.577,Context_Learning_Pilot,2020.1.3,MacIntel,60,,,,,,,,,,,,,,,,,,,,,,,,,,,,,,,,,,,,,,,,,,,,,,,,,,,,,,,,,,,,
0,5,5,5,1,1,u,green,media/dnnb.png,media/dnnb_r.png,media/dnnb_g.png,0.014,0.1,media/hand.png,media/cross.png,2,6,2020-12-21_13h11.06.577,Context_Learning_Pilot,2020.1.3,MacIntel,60,,,,,,,,,,,,,,,,,,,,,,,,,,,,,,,,,,,,,,,,,,,,,,,,,,,,,,,,,,,,
0,6,6,6,1,2,i,green,media/dinb.png,media/dinb_r.png,media/dinb_g.png,0.057,0.08,media/hand.png,media/check.png,2,6,2020-12-21_13h11.06.577,Context_Learning_Pilot,2020.1.3,MacIntel,60,,,,,,,,,,,,,,,,,,,,,,,,,,,,,,,,,,,,,,,,,,,,,,,,,,,,,,,,,,,,
,,,,,,,,,,,,,,,2,6,2020-12-21_13h11.06.577,Context_Learning_Pilot,2020.1.3,MacIntel,60,"[1,2,0,3]","[0,3,1,2]",h,3.48101,h,4.32558,0,media/djnb.png,2,Symb,h,RT,0,0,0,0,1,1,1.8,6,h,1,0.79213,0,0,0,0,1,,,,,,,,,,,,,,,,,,,,,,,,,,,,,,,,
,,,,,,,,,,,,,,,2,6,2020-12-21_13h11.06.577,Context_Learning_Pilot,2020.1.3,MacIntel,60,,,,,,,1,media/dnnb.png,2,Symb,l,RT,0,0,1,0,1,1,1.8,6,l,1,0.71334,1,0,1,0,1,,,,,,,,,,,,,,,,,,,,,,,,,,,,,,,,
,,,,,,,,,,,,,,,2,6,2020-12-21_13h11.06.577,Context_Learning_Pilot,2020.1.3,MacIntel,60,,,,,,,0,media/djnb.png,2,Symb,h,RT,0,0,2,0,1,1,1.8,6,h,1,0.61394,2,0,2,0,1,,,,,,,,,,,,,,,,,,,,,,,,,,,,,,,,
,,,,,,,,,,,,,,,2,6,2020-12-21_13h11.06.577,Context_Learning_Pilot,2020.1.3,MacIntel,60,,,,,,,3,media/ddnb.png,2,Symb,i,RT,0,0,3,0,1,1,1.8,6,i,1,0.6574,3,0,3,0,1,,,,,,,,,,,,,,,,,,,,,,,,,,,,,,,,
,,,,,,,,,,,,,,,2,6,2020-12-21_13h11.06.577,Context_Learning_Pilot,2020.1.3,MacIntel,60,,,,,,,3,media/ddnb.png,2,Symb,i,RT,0,0,4,0,1,1,1.8,6,i,1,0.5653,4,0,4,0,1,,,,,,,,,,,,,,,,,,,,,,,,,,,,,,,,
,,,,,,,,,,,,,,,2,6,2020-12-21_13h11.06.577,Context_Learning_Pilot,2020.1.3,MacIntel,60,,,,,,,1,media/dnnb.png,1,Symb,i,RT,0,0,5,0,1,1,1.8,6,l,0,0.688625,5,0,5,0,1,,,,,,,,,,,,,,,,,,,,,,,,,,,,,,,,
,,,,,,,,,,,,,,,2,6,2020-12-21_13h11.06.577,Context_Learning_Pilot,2020.1.3,MacIntel,60,,,,,,,2,media/dinb.png,2,Symb,u,RT,0,0,6,0,1,1,1.8,6,u,1,1.02564,6,0,6,0,1,,,,,,,,,,,,,,,,,,,,,,,,,,,,,,,,
,,,,,,,,,,,,,,,2,6,2020-12-21_13h11.06.577,Context_Learning_Pilot,2020.1.3,MacIntel,60,,,,,,,3,media/ddnb.png,1,Symb,l,RT,0,0,7,0,1,1,1.8,6,i,0,1.363935,7,0,7,0,1,,,,,,,,,,,,,,,,,,,,,,,,,,,,,,,,
,,,,,,,,,,,,,,,2,6,2020-12-21_13h11.06.577,Context_Learning_Pilot,2020.1.3,MacIntel,60,,,,,,,0,media/djnb.png,1,Symb,u,RT,0,0,8,0,1,1,1.8,6,u,1,0.73554,8,0,8,0,1,,,,,,,,,,,,,,,,,,,,,,,,,,,,,,,,
,,,,,,,,,,,,,,,2,6,2020-12-21_13h11.06.577,Context_Learning_Pilot,2020.1.3,MacIntel,60,,,,,,,1,media/dnnb.png,2,Symb,l,RT,0,0,9,0,1,1,1.8,6,l,1,0.72953,9,0,9,0,1,,,,,,,,,,,,,,,,,,,,,,,,,,,,,,,,
,,,,,,,,,,,,,,,2,6,2020-12-21_13h11.06.577,Context_Learning_Pilot,2020.1.3,MacIntel,60,,,,,,,2,media/dinb.png,1,Symb,h,RT,0,0,10,0,1,1,1.8,6,h,1,0.735685,10,0,10,0,1,,,,,,,,,,,,,,,,,,,,,,,,,,,,,,,,
,,,,,,,,,,,,,,,2,6,2020-12-21_13h11.06.577,Context_Learning_Pilot,2020.1.3,MacIntel,60,,,,,,,1,media/dnnb.png,1,Symb,i,RT,0,0,11,0,1,1,1.8,6,i,1,0.97237,11,0,11,0,1,,,,,,,,,,,,,,,,,,,,,,,,,,,,,,,,
,,,,,,,,,,,,,,,2,6,2020-12-21_13h11.06.577,Context_Learning_Pilot,2020.1.3,MacIntel,60,,,,,,,3,media/ddnb.png,1,Symb,l,RT,0,0,12,0,1,1,1.8,6,l,1,0.78582,12,0,12,0,1,,,,,,,,,,,,,,,,,,,,,,,,,,,,,,,,
,,,,,,,,,,,,,,,2,6,2020-12-21_13h11.06.577,Context_Learning_Pilot,2020.1.3,MacIntel,60,,,,,,,2,media/dinb.png,1,Symb,h,RT,0,0,13,0,1,1,1.8,6,h,1,0.98427,13,0,13,0,1,,,,,,,,,,,,,,,,,,,,,,,,,,,,,,,,
,,,,,,,,,,,,,,,2,6,2020-12-21_13h11.06.577,Context_Learning_Pilot,2020.1.3,MacIntel,60,,,,,,,0,media/djnb.png,1,Symb,u,RT,0,0,14,0,1,1,1.8,6,u,1,0.85942,14,0,14,0,1,,,,,,,,,,,,,,,,,,,,,,,,,,,,,,,,
,,,,,,,,,,,,,,,2,6,2020-12-21_13h11.06.577,Context_Learning_Pilot,2020.1.3,MacIntel,60,,,,,,,2,media/dinb.png,2,Symb,u,RT,0,0,15,0,1,1,1.8,6,u,1,0.90488,15,0,15,0,1,,,,,,,,,,,,,,,,,,,,,,,,,,,,,,,,
,,,,,,,,,,,,,,,2,6,2020-12-21_13h11.06.577,Context_Learning_Pilot,2020.1.3,MacIntel,60,,,,,,,1,media/dnnb.png,2,Symb,l,RT,0,0,16,0,1,1,1.8,6,l,1,0.62666,16,0,16,0,1,,,,,,,,,,,,,,,,,,,,,,,,,,,,,,,,
,,,,,,,,,,,,,,,2,6,2020-12-21_13h11.06.577,Context_Learning_Pilot,2020.1.3,MacIntel,60,,,,,,,3,media/ddnb.png,1,Symb,l,RT,0,0,17,0,1,1,1.8,6,l,1,0.80137,17,0,17,0,1,,,,,,,,,,,,,,,,,,,,,,,,,,,,,,,,
,,,,,,,,,,,,,,,2,6,2020-12-21_13h11.06.577,Context_Learning_Pilot,2020.1.3,MacIntel,60,,,,,,,2,media/dinb.png,1,Symb,h,RT,0,0,18,0,1,1,1.8,6,h,1,0.857915,18,0,18,0,1,,,,,,,,,,,,,,,,,,,,,,,,,,,,,,,,
,,,,,,,,,,,,,,,2,6,2020-12-21_13h11.06.577,Context_Learning_Pilot,2020.1.3,MacIntel,60,,,,,,,3,media/ddnb.png,2,Symb,i,RT,0,0,19,0,1,1,1.8,6,i,1,1.22474,19,0,19,0,1,,,,,,,,,,,,,,,,,,,,,,,,,,,,,,,,
,,,,,,,,,,,,,,,2,6,2020-12-21_13h11.06.577,Context_Learning_Pilot,2020.1.3,MacIntel,60,,,,,,,2,media/dinb.png,2,Symb,u,RT,0,0,20,0,1,1,1.8,6,u,1,1.18885,20,0,20,0,1,,,,,,,,,,,,,,,,,,,,,,,,,,,,,,,,
,,,,,,,,,,,,,,,2,6,2020-12-21_13h11.06.577,Context_Learning_Pilot,2020.1.3,MacIntel,60,,,,,,,0,media/djnb.png,1,Symb,u,RT,0,0,21,0,1,1,1.8,6,u,1,0.85587,21,0,21,0,1,,,,,,,,,,,,,,,,,,,,,,,,,,,,,,,,
,,,,,,,,,,,,,,,2,6,2020-12-21_13h11.06.577,Context_Learning_Pilot,2020.1.3,MacIntel,60,,,,,,,0,media/djnb.png,2,Symb,h,RT,0,0,22,0,1,1,1.8,6,h,1,0.66833,22,0,22,0,1,,,,,,,,,,,,,,,,,,,,,,,,,,,,,,,,
,,,,,,,,,,,,,,,2,6,2020-12-21_13h11.06.577,Context_Learning_Pilot,2020.1.3,MacIntel,60,,,,,,,2,media/dinb.png,2,Symb,u,RT,0,0,23,0,1,1,1.8,6,u,1,1.095685,23,0,23,0,1,,,,,,,,,,,,,,,,,,,,,,,,,,,,,,,,
,,,,,,,,,,,,,,,2,6,2020-12-21_13h11.06.577,Context_Learning_Pilot,2020.1.3,MacIntel,60,,,,,,,0,media/djnb.png,1,Symb,u,RT,0,0,24,0,1,1,1.8,6,h,0,0.765985,24,0,24,0,1,,,,,,,,,,,,,,,,,,,,,,,,,,,,,,,,
,,,,,,,,,,,,,,,2,6,2020-12-21_13h11.06.577,Context_Learning_Pilot,2020.1.3,MacIntel,60,,,,,,,2,media/dinb.png,1,Symb,h,RT,0,0,25,0,1,1,1.8,6,h,1,0.73717,25,0,25,0,1,,,,,,,,,,,,,,,,,,,,,,,,,,,,,,,,
,,,,,,,,,,,,,,,2,6,2020-12-21_13h11.06.577,Context_Learning_Pilot,2020.1.3,MacIntel,60,,,,,,,1,media/dnnb.png,2,Symb,l,RT,0,0,26,0,1,1,1.8,6,l,1,0.86519,26,0,26,0,1,,,,,,,,,,,,,,,,,,,,,,,,,,,,,,,,
,,,,,,,,,,,,,,,2,6,2020-12-21_13h11.06.577,Context_Learning_Pilot,2020.1.3,MacIntel,60,,,,,,,3,media/ddnb.png,1,Symb,l,RT,0,0,27,0,1,1,1.8,6,l,1,0.746785,27,0,27,0,1,,,,,,,,,,,,,,,,,,,,,,,,,,,,,,,,
,,,,,,,,,,,,,,,2,6,2020-12-21_13h11.06.577,Context_Learning_Pilot,2020.1.3,MacIntel,60,,,,,,,0,media/djnb.png,2,Symb,h,RT,0,0,28,0,1,1,1.8,6,h,1,0.643175,28,0,28,0,1,,,,,,,,,,,,,,,,,,,,,,,,,,,,,,,,
,,,,,,,,,,,,,,,2,6,2020-12-21_13h11.06.577,Context_Learning_Pilot,2020.1.3,MacIntel,60,,,,,,,3,media/ddnb.png,2,Symb,i,RT,0,0,29,0,1,1,1.8,6,i,1,0.878185,29,0,29,0,1,,,,,,,,,,,,,,,,,,,,,,,,,,,,,,,,
,,,,,,,,,,,,,,,2,6,2020-12-21_13h11.06.577,Context_Learning_Pilot,2020.1.3,MacIntel,60,,,,,,,1,media/dnnb.png,1,Symb,i,RT,0,0,30,0,1,1,1.8,6,i,1,0.830095,30,0,30,0,1,,,,,,,,,,,,,,,,,,,,,,,,,,,,,,,,
,,,,,,,,,,,,,,,2,6,2020-12-21_13h11.06.577,Context_Learning_Pilot,2020.1.3,MacIntel,60,,,,,,,1,media/dnnb.png,1,Symb,i,RT,0,0,31,0,1,1,1.8,6,i,1,0.62378,31,0,31,0,1,,,,,,,,,,,,,,,,,,,,,,,,,,,,,,,,
,,,,,,,,,,,,,,,2,6,2020-12-21_13h11.06.577,Context_Learning_Pilot,2020.1.3,MacIntel,60,,,,,,,0,media/djnb.png,2,Symb,h,RT,0,0,32,0,1,1,1.8,6,h,1,0.68765,32,0,32,0,1,,,,,,,,,,,,,,,,,,,,,,,,,,,,,,,,
,,,,,,,,,,,,,,,2,6,2020-12-21_13h11.06.577,Context_Learning_Pilot,2020.1.3,MacIntel,60,,,,,,,3,media/ddnb.png,2,Symb,i,RT,0,0,33,0,1,1,1.8,6,i,1,1.36828,33,0,33,0,1,,,,,,,,,,,,,,,,,,,,,,,,,,,,,,,,
,,,,,,,,,,,,,,,2,6,2020-12-21_13h11.06.577,Context_Learning_Pilot,2020.1.3,MacIntel,60,,,,,,,1,media/dnnb.png,1,Symb,i,RT,0,0,34,0,1,1,1.8,6,i,1,1.42114,34,0,34,0,1,,,,,,,,,,,,,,,,,,,,,,,,,,,,,,,,
,,,,,,,,,,,,,,,2,6,2020-12-21_13h11.06.577,Context_Learning_Pilot,2020.1.3,MacIntel,60,,,,,,,1,media/dnnb.png,2,Symb,l,RT,0,0,35,0,1,1,1.8,6,l,1,0.79381,35,0,35,0,1,,,,,,,,,,,,,,,,,,,,,,,,,,,,,,,,
,,,,,,,,,,,,,,,2,6,2020-12-21_13h11.06.577,Context_Learning_Pilot,2020.1.3,MacIntel,60,,,,,,,3,media/ddnb.png,1,Symb,l,RT,0,0,36,0,1,1,1.8,6,l,1,0.827255,36,0,36,0,1,,,,,,,,,,,,,,,,,,,,,,,,,,,,,,,,
,,,,,,,,,,,,,,,2,6,2020-12-21_13h11.06.577,Context_Learning_Pilot,2020.1.3,MacIntel,60,,,,,,,2,media/dinb.png,2,Symb,u,RT,0,0,37,0,1,1,1.8,6,u,1,0.741875,37,0,37,0,1,,,,,,,,,,,,,,,,,,,,,,,,,,,,,,,,
,,,,,,,,,,,,,,,2,6,2020-12-21_13h11.06.577,Context_Learning_Pilot,2020.1.3,MacIntel,60,,,,,,,1,media/dnnb.png,2,Symb,l,RT,0,0,38,0,1,1,1.8,6,l,1,0.676095,38,0,38,0,1,,,,,,,,,,,,,,,,,,,,,,,,,,,,,,,,
,,,,,,,,,,,,,,,2,6,2020-12-21_13h11.06.577,Context_Learning_Pilot,2020.1.3,MacIntel,60,,,,,,,2,media/dinb.png,1,Symb,h,RT,0,0,39,0,1,1,1.8,6,h,1,0.622795,39,0,39,0,1,,,,,,,,,,,,,,,,,,,,,,,,,,,,,,,,
,,,,,,,,,,,,,,,2,6,2020-12-21_13h11.06.577,Context_Learning_Pilot,2020.1.3,MacIntel,60,,,,,,,3,media/ddnb.png,2,Symb,i,RT,0,0,40,0,1,1,1.8,6,i,1,0.695595,40,0,40,0,1,,,,,,,,,,,,,,,,,,,,,,,,,,,,,,,,
,,,,,,,,,,,,,,,2,6,2020-12-21_13h11.06.577,Context_Learning_Pilot,2020.1.3,MacIntel,60,,,,,,,2,media/dinb.png,2,Symb,u,RT,0,0,41,0,1,1,1.8,6,u,1,1.08294,41,0,41,0,1,,,,,,,,,,,,,,,,,,,,,,,,,,,,,,,,
,,,,,,,,,,,,,,,2,6,2020-12-21_13h11.06.577,Context_Learning_Pilot,2020.1.3,MacIntel,60,,,,,,,3,media/ddnb.png,1,Symb,l,RT,0,0,42,0,1,1,1.8,6,l,1,0.74509,42,0,42,0,1,,,,,,,,,,,,,,,,,,,,,,,,,,,,,,,,
,,,,,,,,,,,,,,,2,6,2020-12-21_13h11.06.577,Context_Learning_Pilot,2020.1.3,MacIntel,60,,,,,,,0,media/djnb.png,1,Symb,u,RT,0,0,43,0,1,1,1.8,6,u,1,0.728765,43,0,43,0,1,,,,,,,,,,,,,,,,,,,,,,,,,,,,,,,,
,,,,,,,,,,,,,,,2,6,2020-12-21_13h11.06.577,Context_Learning_Pilot,2020.1.3,MacIntel,60,,,,,,,0,media/djnb.png,1,Symb,u,RT,0,0,44,0,1,1,1.8,6,u,1,0.652975,44,0,44,0,1,,,,,,,,,,,,,,,,,,,,,,,,,,,,,,,,
,,,,,,,,,,,,,,,2,6,2020-12-21_13h11.06.577,Context_Learning_Pilot,2020.1.3,MacIntel,60,,,,,,,1,media/dnnb.png,1,Symb,i,RT,0,0,45,0,1,1,1.8,6,i,1,0.69222,45,0,45,0,1,,,,,,,,,,,,,,,,,,,,,,,,,,,,,,,,
,,,,,,,,,,,,,,,2,6,2020-12-21_13h11.06.577,Context_Learning_Pilot,2020.1.3,MacIntel,60,,,,,,,2,media/dinb.png,1,Symb,h,RT,0,0,46,0,1,1,1.8,6,h,1,0.69123,46,0,46,0,1,,,,,,,,,,,,,,,,,,,,,,,,,,,,,,,,
,,,,,,,,,,,,,,,2,6,2020-12-21_13h11.06.577,Context_Learning_Pilot,2020.1.3,MacIntel,60,,,,,,,0,media/djnb.png,2,Symb,h,RT,0,0,47,0,1,1,1.8,6,h,1,0.59254,47,0,47,0,1,,,,,,,,,,,,,,,,,,,,,,,,,,,,,,,,
,,,,,,,,,,,,,,,2,6,2020-12-21_13h11.06.577,Context_Learning_Pilot,2020.1.3,MacIntel,60,,,,,,,1,media/dnnb.png,1,Symb,i,RT,0,0,48,0,1,1,1.8,6,i,1,0.817275,48,0,48,0,1,,,,,,,,,,,,,,,,,,,,,,,,,,,,,,,,
,,,,,,,,,,,,,,,2,6,2020-12-21_13h11.06.577,Context_Learning_Pilot,2020.1.3,MacIntel,60,,,,,,,0,media/djnb.png,1,Symb,u,RT,0,0,49,0,1,1,1.8,6,u,1,0.808205,49,0,49,0,1,,,,,,,,,,,,,,,,,,,,,,,,,,,,,,,,
,,,,,,,,,,,,,,,2,6,2020-12-21_13h11.06.577,Context_Learning_Pilot,2020.1.3,MacIntel,60,,,,,,,2,media/dinb.png,2,Symb,u,RT,0,0,50,0,1,1,1.8,6,u,1,1.136805,50,0,50,0,1,,,,,,,,,,,,,,,,,,,,,,,,,,,,,,,,
,,,,,,,,,,,,,,,2,6,2020-12-21_13h11.06.577,Context_Learning_Pilot,2020.1.3,MacIntel,60,,,,,,,0,media/djnb.png,1,Symb,u,RT,0,0,51,0,1,1,1.8,6,u,1,1.02469,51,0,51,0,1,,,,,,,,,,,,,,,,,,,,,,,,,,,,,,,,
,,,,,,,,,,,,,,,2,6,2020-12-21_13h11.06.577,Context_Learning_Pilot,2020.1.3,MacIntel,60,,,,,,,1,media/dnnb.png,2,Symb,l,RT,0,0,52,0,1,1,1.8,6,l,1,0.75147,52,0,52,0,1,,,,,,,,,,,,,,,,,,,,,,,,,,,,,,,,
,,,,,,,,,,,,,,,2,6,2020-12-21_13h11.06.577,Context_Learning_Pilot,2020.1.3,MacIntel,60,,,,,,,3,media/ddnb.png,2,Symb,i,RT,0,0,53,0,1,1,1.8,6,i,1,0.564285,53,0,53,0,1,,,,,,,,,,,,,,,,,,,,,,,,,,,,,,,,
,,,,,,,,,,,,,,,2,6,2020-12-21_13h11.06.577,Context_Learning_Pilot,2020.1.3,MacIntel,60,,,,,,,0,media/djnb.png,2,Symb,h,RT,0,0,54,0,1,1,1.8,6,h,1,0.711595,54,0,54,0,1,,,,,,,,,,,,,,,,,,,,,,,,,,,,,,,,
,,,,,,,,,,,,,,,2,6,2020-12-21_13h11.06.577,Context_Learning_Pilot,2020.1.3,MacIntel,60,,,,,,,3,media/ddnb.png,1,Symb,l,RT,0,0,55,0,1,1,1.8,6,l,1,0.747305,55,0,55,0,1,,,,,,,,,,,,,,,,,,,,,,,,,,,,,,,,
,,,,,,,,,,,,,,,2,6,2020-12-21_13h11.06.577,Context_Learning_Pilot,2020.1.3,MacIntel,60,,,,,,,2,media/dinb.png,2,Symb,u,RT,0,0,56,0,1,1,1.8,6,u,1,0.81852,56,0,56,0,1,,,,,,,,,,,,,,,,,,,,,,,,,,,,,,,,
,,,,,,,,,,,,,,,2,6,2020-12-21_13h11.06.577,Context_Learning_Pilot,2020.1.3,MacIntel,60,,,,,,,0,media/djnb.png,2,Symb,h,RT,0,0,57,0,1,1,1.8,6,h,1,0.656915,57,0,57,0,1,,,,,,,,,,,,,,,,,,,,,,,,,,,,,,,,
,,,,,,,,,,,,,,,2,6,2020-12-21_13h11.06.577,Context_Learning_Pilot,2020.1.3,MacIntel,60,,,,,,,2,media/dinb.png,1,Symb,h,RT,0,0,58,0,1,1,1.8,6,h,1,0.89568,58,0,58,0,1,,,,,,,,,,,,,,,,,,,,,,,,,,,,,,,,
,,,,,,,,,,,,,,,2,6,2020-12-21_13h11.06.577,Context_Learning_Pilot,2020.1.3,MacIntel,60,,,,,,,1,media/dnnb.png,1,Symb,i,RT,0,0,59,0,1,1,1.8,6,i,1,0.714405,59,0,59,0,1,,,,,,,,,,,,,,,,,,,,,,,,,,,,,,,,
,,,,,,,,,,,,,,,2,6,2020-12-21_13h11.06.577,Context_Learning_Pilot,2020.1.3,MacIntel,60,,,,,,,1,media/dnnb.png,2,Symb,l,RT,0,0,60,0,1,1,1.8,6,l,1,0.872645,60,0,60,0,1,,,,,,,,,,,,,,,,,,,,,,,,,,,,,,,,
,,,,,,,,,,,,,,,2,6,2020-12-21_13h11.06.577,Context_Learning_Pilot,2020.1.3,MacIntel,60,,,,,,,3,media/ddnb.png,2,Symb,i,RT,0,0,61,0,1,1,1.8,6,i,1,0.73589,61,0,61,0,1,,,,,,,,,,,,,,,,,,,,,,,,,,,,,,,,
,,,,,,,,,,,,,,,2,6,2020-12-21_13h11.06.577,Context_Learning_Pilot,2020.1.3,MacIntel,60,,,,,,,3,media/ddnb.png,1,Symb,l,RT,0,0,62,0,1,1,1.8,6,l,1,0.829445,62,0,62,0,1,,,,,,,,,,,,,,,,,,,,,,,,,,,,,,,,
,,,,,,,,,,,,,,,2,6,2020-12-21_13h11.06.577,Context_Learning_Pilot,2020.1.3,MacIntel,60,,,,,,,2,media/dinb.png,1,Symb,h,RT,0,0,63,0,1,1,1.8,6,h,1,0.683455,63,0,63,0,1,,,,,,,,,,,,,,,,,,,,,,,,,,,,,,,,
,,,,,,,,,,,,,,,2,6,2020-12-21_13h11.06.577,Context_Learning_Pilot,2020.1.3,MacIntel,60,,,,,,,3,media/ddnb.png,2,Symb,i,RT,0,0,64,0,1,1,1.8,6,i,1,0.837565,64,0,64,0,1,,,,,,,,,,,,,,,,,,,,,,,,,,,,,,,,
,,,,,,,,,,,,,,,2,6,2020-12-21_13h11.06.577,Context_Learning_Pilot,2020.1.3,MacIntel,60,,,,,,,2,media/dinb.png,2,Symb,u,RT,0,0,65,0,1,1,1.8,6,h,0,0.576205,65,0,65,0,1,,,,,,,,,,,,,,,,,,,,,,,,,,,,,,,,
,,,,,,,,,,,,,,,2,6,2020-12-21_13h11.06.577,Context_Learning_Pilot,2020.1.3,MacIntel,60,,,,,,,1,media/dnnb.png,2,Symb,l,RT,0,0,66,0,1,1,1.8,6,l,1,1.4486,66,0,66,0,1,,,,,,,,,,,,,,,,,,,,,,,,,,,,,,,,
,,,,,,,,,,,,,,,2,6,2020-12-21_13h11.06.577,Context_Learning_Pilot,2020.1.3,MacIntel,60,,,,,,,2,media/dinb.png,1,Symb,h,RT,0,0,67,0,1,1,1.8,6,h,1,1.134565,67,0,67,0,1,,,,,,,,,,,,,,,,,,,,,,,,,,,,,,,,
,,,,,,,,,,,,,,,2,6,2020-12-21_13h11.06.577,Context_Learning_Pilot,2020.1.3,MacIntel,60,,,,,,,2,media/dinb.png,2,Symb,u,RT,0,0,68,0,1,1,1.8,6,u,1,0.711135,68,0,68,0,1,,,,,,,,,,,,,,,,,,,,,,,,,,,,,,,,
,,,,,,,,,,,,,,,2,6,2020-12-21_13h11.06.577,Context_Learning_Pilot,2020.1.3,MacIntel,60,,,,,,,0,media/djnb.png,2,Symb,h,RT,0,0,69,0,1,1,1.8,6,u,0,1.363345,69,0,69,0,1,,,,,,,,,,,,,,,,,,,,,,,,,,,,,,,,
,,,,,,,,,,,,,,,2,6,2020-12-21_13h11.06.577,Context_Learning_Pilot,2020.1.3,MacIntel,60,,,,,,,1,media/dnnb.png,2,Symb,l,RT,0,0,70,0,1,1,1.8,6,l,1,0.79976,70,0,70,0,1,,,,,,,,,,,,,,,,,,,,,,,,,,,,,,,,
,,,,,,,,,,,,,,,2,6,2020-12-21_13h11.06.577,Context_Learning_Pilot,2020.1.3,MacIntel,60,,,,,,,3,media/ddnb.png,1,Symb,l,RT,0,0,71,0,1,1,1.8,6,l,1,0.80707,71,0,71,0,1,,,,,,,,,,,,,,,,,,,,,,,,,,,,,,,,
,,,,,,,,,,,,,,,2,6,2020-12-21_13h11.06.577,Context_Learning_Pilot,2020.1.3,MacIntel,60,,,,,,,1,media/dnnb.png,1,Symb,i,RT,0,0,72,0,1,1,1.8,6,i,1,0.93921,72,0,72,0,1,,,,,,,,,,,,,,,,,,,,,,,,,,,,,,,,
,,,,,,,,,,,,,,,2,6,2020-12-21_13h11.06.577,Context_Learning_Pilot,2020.1.3,MacIntel,60,,,,,,,3,media/ddnb.png,2,Symb,i,RT,0,0,73,0,1,1,1.8,6,i,1,0.791385,73,0,73,0,1,,,,,,,,,,,,,,,,,,,,,,,,,,,,,,,,
,,,,,,,,,,,,,,,2,6,2020-12-21_13h11.06.577,Context_Learning_Pilot,2020.1.3,MacIntel,60,,,,,,,1,media/dnnb.png,1,Symb,i,RT,0,0,74,0,1,1,1.8,6,l,0,0.84545,74,0,74,0,1,,,,,,,,,,,,,,,,,,,,,,,,,,,,,,,,
,,,,,,,,,,,,,,,2,6,2020-12-21_13h11.06.577,Context_Learning_Pilot,2020.1.3,MacIntel,60,,,,,,,2,media/dinb.png,1,Symb,h,RT,0,0,75,0,1,1,1.8,6,h,1,0.83324,75,0,75,0,1,,,,,,,,,,,,,,,,,,,,,,,,,,,,,,,,
,,,,,,,,,,,,,,,2,6,2020-12-21_13h11.06.577,Context_Learning_Pilot,2020.1.3,MacIntel,60,,,,,,,0,media/djnb.png,1,Symb,u,RT,0,0,76,0,1,1,1.8,6,u,1,1.014195,76,0,76,0,1,,,,,,,,,,,,,,,,,,,,,,,,,,,,,,,,
,,,,,,,,,,,,,,,2,6,2020-12-21_13h11.06.577,Context_Learning_Pilot,2020.1.3,MacIntel,60,,,,,,,3,media/ddnb.png,1,Symb,l,RT,0,0,77,0,1,1,1.8,6,l,1,0.89265,77,0,77,0,1,,,,,,,,,,,,,,,,,,,,,,,,,,,,,,,,
,,,,,,,,,,,,,,,2,6,2020-12-21_13h11.06.577,Context_Learning_Pilot,2020.1.3,MacIntel,60,,,,,,,0,media/djnb.png,2,Symb,h,RT,0,0,78,0,1,1,1.8,6,h,1,1.61438,78,0,78,0,1,,,,,,,,,,,,,,,,,,,,,,,,,,,,,,,,
,,,,,,,,,,,,,,,2,6,2020-12-21_13h11.06.577,Context_Learning_Pilot,2020.1.3,MacIntel,60,,,,,,,0,media/djnb.png,1,Symb,u,RT,0,0,79,0,1,1,1.8,6,u,1,0.785285,79,0,79,0,1,,,,,,,,,,,,,,,,,,,,,,,,,,,,,,,,
,,,,,,,,,,,,,,,2,6,2020-12-21_13h11.06.577,Context_Learning_Pilot,2020.1.3,MacIntel,60,,,,,,,3,media/ddnb.png,1,Symb,l,RT,0,0,80,0,1,1,1.8,6,l,1,0.79196,80,0,80,0,1,,,,,,,,,,,,,,,,,,,,,,,,,,,,,,,,
,,,,,,,,,,,,,,,2,6,2020-12-21_13h11.06.577,Context_Learning_Pilot,2020.1.3,MacIntel,60,,,,,,,0,media/djnb.png,1,Symb,u,RT,0,0,81,0,1,1,1.8,6,u,1,0.770185,81,0,81,0,1,,,,,,,,,,,,,,,,,,,,,,,,,,,,,,,,
,,,,,,,,,,,,,,,2,6,2020-12-21_13h11.06.577,Context_Learning_Pilot,2020.1.3,MacIntel,60,,,,,,,3,media/ddnb.png,1,Symb,l,RT,0,0,82,0,1,1,1.8,6,i,0,1.01545,82,0,82,0,1,,,,,,,,,,,,,,,,,,,,,,,,,,,,,,,,
,,,,,,,,,,,,,,,2,6,2020-12-21_13h11.06.577,Context_Learning_Pilot,2020.1.3,MacIntel,60,,,,,,,1,media/dnnb.png,1,Symb,i,RT,0,0,83,0,1,1,1.8,6,i,1,1.059055,83,0,83,0,1,,,,,,,,,,,,,,,,,,,,,,,,,,,,,,,,
,,,,,,,,,,,,,,,2,6,2020-12-21_13h11.06.577,Context_Learning_Pilot,2020.1.3,MacIntel,60,,,,,,,0,media/djnb.png,1,Symb,u,RT,0,0,84,0,1,1,1.8,6,u,1,1.16371,84,0,84,0,1,,,,,,,,,,,,,,,,,,,,,,,,,,,,,,,,
,,,,,,,,,,,,,,,2,6,2020-12-21_13h11.06.577,Context_Learning_Pilot,2020.1.3,MacIntel,60,,,,,,,1,media/dnnb.png,2,Symb,l,RT,0,0,85,0,1,1,1.8,6,l,1,1.102875,85,0,85,0,1,,,,,,,,,,,,,,,,,,,,,,,,,,,,,,,,
,,,,,,,,,,,,,,,2,6,2020-12-21_13h11.06.577,Context_Learning_Pilot,2020.1.3,MacIntel,60,,,,,,,2,media/dinb.png,2,Symb,u,RT,0,0,86,0,1,1,1.8,6,u,1,0.780655,86,0,86,0,1,,,,,,,,,,,,,,,,,,,,,,,,,,,,,,,,
,,,,,,,,,,,,,,,2,6,2020-12-21_13h11.06.577,Context_Learning_Pilot,2020.1.3,MacIntel,60,,,,,,,2,media/dinb.png,1,Symb,h,RT,0,0,87,0,1,1,1.8,6,h,1,0.671555,87,0,87,0,1,,,,,,,,,,,,,,,,,,,,,,,,,,,,,,,,
,,,,,,,,,,,,,,,2,6,2020-12-21_13h11.06.577,Context_Learning_Pilot,2020.1.3,MacIntel,60,,,,,,,2,media/dinb.png,2,Symb,u,RT,0,0,88,0,1,1,1.8,6,u,1,0.661535,88,0,88,0,1,,,,,,,,,,,,,,,,,,,,,,,,,,,,,,,,
,,,,,,,,,,,,,,,2,6,2020-12-21_13h11.06.577,Context_Learning_Pilot,2020.1.3,MacIntel,60,,,,,,,3,media/ddnb.png,2,Symb,i,RT,0,0,89,0,1,1,1.8,6,i,1,0.963635,89,0,89,0,1,,,,,,,,,,,,,,,,,,,,,,,,,,,,,,,,
,,,,,,,,,,,,,,,2,6,2020-12-21_13h11.06.577,Context_Learning_Pilot,2020.1.3,MacIntel,60,,,,,,,0,media/djnb.png,2,Symb,h,RT,0,0,90,0,1,1,1.8,6,h,1,0.788125,90,0,90,0,1,,,,,,,,,,,,,,,,,,,,,,,,,,,,,,,,
,,,,,,,,,,,,,,,2,6,2020-12-21_13h11.06.577,Context_Learning_Pilot,2020.1.3,MacIntel,60,,,,,,,2,media/dinb.png,1,Symb,h,RT,0,0,91,0,1,1,1.8,6,h,1,0.701285,91,0,91,0,1,,,,,,,,,,,,,,,,,,,,,,,,,,,,,,,,
,,,,,,,,,,,,,,,2,6,2020-12-21_13h11.06.577,Context_Learning_Pilot,2020.1.3,MacIntel,60,,,,,,,0,media/djnb.png,2,Symb,h,RT,0,0,92,0,1,1,1.8,6,h,1,0.669475,92,0,92,0,1,,,,,,,,,,,,,,,,,,,,,,,,,,,,,,,,
,,,,,,,,,,,,,,,2,6,2020-12-21_13h11.06.577,Context_Learning_Pilot,2020.1.3,MacIntel,60,,,,,,,1,media/dnnb.png,2,Symb,l,RT,0,0,93,0,1,1,1.8,6,l,1,0.754845,93,0,93,0,1,,,,,,,,,,,,,,,,,,,,,,,,,,,,,,,,
,,,,,,,,,,,,,,,2,6,2020-12-21_13h11.06.577,Context_Learning_Pilot,2020.1.3,MacIntel,60,,,,,,,1,media/dnnb.png,1,Symb,i,RT,0,0,94,0,1,1,1.8,6,i,1,0.66096,94,0,94,0,1,,,,,,,,,,,,,,,,,,,,,,,,,,,,,,,,
,,,,,,,,,,,,,,,2,6,2020-12-21_13h11.06.577,Context_Learning_Pilot,2020.1.3,MacIntel,60,,,,,,,3,media/ddnb.png,2,Symb,i,RT,0,0,95,0,1,1,1.8,6,i,1,0.64658,95,0,95,0,1,,,,,,,,,,,,,,,,,,,,,,,,,,,,,,,,
,,,,,,,,,,,,,,,2,6,2020-12-21_13h11.06.577,Context_Learning_Pilot,2020.1.3,MacIntel,60,,,,,,,,,,,,,,,,,,,,,,,,,,,,,0,0,0,0,1,,,,,,,,,,,,,,,,,,,,,,,,,,,
,,,,,,,,,,,,,,,2,6,2020-12-21_13h11.06.577,Context_Learning_Pilot,2020.1.3,MacIntel,60,,,,,h,2.407815,1,media/dnnb.png,1,Symb,i,RT,0,0,0,0,1,2,1.8,6,i,1,0.69182,0,0,0,0,1,,,,,,,,,,,,,,,,,,,,,,,,,,,,,,,,
,,,,,,,,,,,,,,,2,6,2020-12-21_13h11.06.577,Context_Learning_Pilot,2020.1.3,MacIntel,60,,,,,,,2,media/dinb.png,1,Symb,h,RT,0,0,1,0,1,2,1.8,6,h,1,0.701985,1,0,1,0,1,,,,,,,,,,,,,,,,,,,,,,,,,,,,,,,,
,,,,,,,,,,,,,,,2,6,2020-12-21_13h11.06.577,Context_Learning_Pilot,2020.1.3,MacIntel,60,,,,,,,2,media/dinb.png,2,Symb,u,RT,0,0,2,0,1,2,1.8,6,u,1,2.291855,2,0,2,0,1,,,,,,,,,,,,,,,,,,,,,,,,,,,,,,,,
,,,,,,,,,,,,,,,2,6,2020-12-21_13h11.06.577,Context_Learning_Pilot,2020.1.3,MacIntel,60,,,,,,,0,media/djnb.png,1,Symb,u,RT,0,0,3,0,1,2,1.8,6,u,1,0.72909,3,0,3,0,1,,,,,,,,,,,,,,,,,,,,,,,,,,,,,,,,
,,,,,,,,,,,,,,,2,6,2020-12-21_13h11.06.577,Context_Learning_Pilot,2020.1.3,MacIntel,60,,,,,,,2,media/dinb.png,2,Symb,u,RT,0,0,4,0,1,2,1.8,6,u,1,0.648965,4,0,4,0,1,,,,,,,,,,,,,,,,,,,,,,,,,,,,,,,,
,,,,,,,,,,,,,,,2,6,2020-12-21_13h11.06.577,Context_Learning_Pilot,2020.1.3,MacIntel,60,,,,,,,1,media/dnnb.png,2,Symb,l,RT,0,0,5,0,1,2,1.8,6,l,1,0.62185,5,0,5,0,1,,,,,,,,,,,,,,,,,,,,,,,,,,,,,,,,
,,,,,,,,,,,,,,,2,6,2020-12-21_13h11.06.577,Context_Learning_Pilot,2020.1.3,MacIntel,60,,,,,,,2,media/dinb.png,1,Symb,h,RT,0,0,6,0,1,2,1.8,6,h,1,0.60259,6,0,6,0,1,,,,,,,,,,,,,,,,,,,,,,,,,,,,,,,,
,,,,,,,,,,,,,,,2,6,2020-12-21_13h11.06.577,Context_Learning_Pilot,2020.1.3,MacIntel,60,,,,,,,3,media/ddnb.png,1,Symb,l,RT,0,0,7,0,1,2,1.8,6,i,0,0.609075,7,0,7,0,1,,,,,,,,,,,,,,,,,,,,,,,,,,,,,,,,
,,,,,,,,,,,,,,,2,6,2020-12-21_13h11.06.577,Context_Learning_Pilot,2020.1.3,MacIntel,60,,,,,,,0,media/djnb.png,2,Symb,h,RT,0,0,8,0,1,2,1.8,6,h,1,0.54687,8,0,8,0,1,,,,,,,,,,,,,,,,,,,,,,,,,,,,,,,,
,,,,,,,,,,,,,,,2,6,2020-12-21_13h11.06.577,Context_Learning_Pilot,2020.1.3,MacIntel,60,,,,,,,1,media/dnnb.png,1,Symb,i,RT,0,0,9,0,1,2,1.8,6,l,0,0.750175,9,0,9,0,1,,,,,,,,,,,,,,,,,,,,,,,,,,,,,,,,
,,,,,,,,,,,,,,,2,6,2020-12-21_13h11.06.577,Context_Learning_Pilot,2020.1.3,MacIntel,60,,,,,,,1,media/dnnb.png,2,Symb,l,RT,0,0,10,0,1,2,1.8,6,l,1,0.756555,10,0,10,0,1,,,,,,,,,,,,,,,,,,,,,,,,,,,,,,,,
,,,,,,,,,,,,,,,2,6,2020-12-21_13h11.06.577,Context_Learning_Pilot,2020.1.3,MacIntel,60,,,,,,,0,media/djnb.png,2,Symb,h,RT,0,0,11,0,1,2,1.8,6,h,1,0.87019,11,0,11,0,1,,,,,,,,,,,,,,,,,,,,,,,,,,,,,,,,
,,,,,,,,,,,,,,,2,6,2020-12-21_13h11.06.577,Context_Learning_Pilot,2020.1.3,MacIntel,60,,,,,,,3,media/ddnb.png,2,Symb,i,RT,0,0,12,0,1,2,1.8,6,i,1,0.697175,12,0,12,0,1,,,,,,,,,,,,,,,,,,,,,,,,,,,,,,,,
,,,,,,,,,,,,,,,2,6,2020-12-21_13h11.06.577,Context_Learning_Pilot,2020.1.3,MacIntel,60,,,,,,,3,media/ddnb.png,2,Symb,i,RT,0,0,13,0,1,2,1.8,6,i,1,0.789375,13,0,13,0,1,,,,,,,,,,,,,,,,,,,,,,,,,,,,,,,,
,,,,,,,,,,,,,,,2,6,2020-12-21_13h11.06.577,Context_Learning_Pilot,2020.1.3,MacIntel,60,,,,,,,3,media/ddnb.png,1,Symb,l,RT,0,0,14,0,1,2,1.8,6,l,1,1.59867,14,0,14,0,1,,,,,,,,,,,,,,,,,,,,,,,,,,,,,,,,
,,,,,,,,,,,,,,,2,6,2020-12-21_13h11.06.577,Context_Learning_Pilot,2020.1.3,MacIntel,60,,,,,,,0,media/djnb.png,1,Symb,u,RT,0,0,15,0,1,2,1.8,6,u,1,0.80696,15,0,15,0,1,,,,,,,,,,,,,,,,,,,,,,,,,,,,,,,,
,,,,,,,,,,,,,,,2,6,2020-12-21_13h11.06.577,Context_Learning_Pilot,2020.1.3,MacIntel,60,,,,,,,0,media/djnb.png,2,Symb,h,RT,0,0,16,0,1,2,1.8,6,h,1,0.65448,16,0,16,0,1,,,,,,,,,,,,,,,,,,,,,,,,,,,,,,,,
,,,,,,,,,,,,,,,2,6,2020-12-21_13h11.06.577,Context_Learning_Pilot,2020.1.3,MacIntel,60,,,,,,,0,media/djnb.png,2,Symb,h,RT,0,0,17,0,1,2,1.8,6,h,1,0.53372,17,0,17,0,1,,,,,,,,,,,,,,,,,,,,,,,,,,,,,,,,
,,,,,,,,,,,,,,,2,6,2020-12-21_13h11.06.577,Context_Learning_Pilot,2020.1.3,MacIntel,60,,,,,,,0,media/djnb.png,1,Symb,u,RT,0,0,18,0,1,2,1.8,6,u,1,1.476305,18,0,18,0,1,,,,,,,,,,,,,,,,,,,,,,,,,,,,,,,,
,,,,,,,,,,,,,,,2,6,2020-12-21_13h11.06.577,Context_Learning_Pilot,2020.1.3,MacIntel,60,,,,,,,1,media/dnnb.png,2,Symb,l,RT,0,0,19,0,1,2,1.8,6,l,1,0.65251,19,0,19,0,1,,,,,,,,,,,,,,,,,,,,,,,,,,,,,,,,
,,,,,,,,,,,,,,,2,6,2020-12-21_13h11.06.577,Context_Learning_Pilot,2020.1.3,MacIntel,60,,,,,,,1,media/dnnb.png,2,Symb,l,RT,0,0,20,0,1,2,1.8,6,l,1,0.90874,20,0,20,0,1,,,,,,,,,,,,,,,,,,,,,,,,,,,,,,,,
,,,,,,,,,,,,,,,2,6,2020-12-21_13h11.06.577,Context_Learning_Pilot,2020.1.3,MacIntel,60,,,,,,,3,media/ddnb.png,2,Symb,i,RT,0,0,21,0,1,2,1.8,6,i,1,0.676665,21,0,21,0,1,,,,,,,,,,,,,,,,,,,,,,,,,,,,,,,,
,,,,,,,,,,,,,,,2,6,2020-12-21_13h11.06.577,Context_Learning_Pilot,2020.1.3,MacIntel,60,,,,,,,1,media/dnnb.png,1,Symb,i,RT,0,0,22,0,1,2,1.8,6,i,1,1.01544,22,0,22,0,1,,,,,,,,,,,,,,,,,,,,,,,,,,,,,,,,
,,,,,,,,,,,,,,,2,6,2020-12-21_13h11.06.577,Context_Learning_Pilot,2020.1.3,MacIntel,60,,,,,,,2,media/dinb.png,2,Symb,u,RT,0,0,23,0,1,2,1.8,6,u,1,1.10128,23,0,23,0,1,,,,,,,,,,,,,,,,,,,,,,,,,,,,,,,,
,,,,,,,,,,,,,,,2,6,2020-12-21_13h11.06.577,Context_Learning_Pilot,2020.1.3,MacIntel,60,,,,,,,3,media/ddnb.png,1,Symb,l,RT,0,0,24,0,1,2,1.8,6,l,1,1.24159,24,0,24,0,1,,,,,,,,,,,,,,,,,,,,,,,,,,,,,,,,
,,,,,,,,,,,,,,,2,6,2020-12-21_13h11.06.577,Context_Learning_Pilot,2020.1.3,MacIntel,60,,,,,,,2,media/dinb.png,2,Symb,u,RT,0,0,25,0,1,2,1.8,6,u,1,1.22537,25,0,25,0,1,,,,,,,,,,,,,,,,,,,,,,,,,,,,,,,,
,,,,,,,,,,,,,,,2,6,2020-12-21_13h11.06.577,Context_Learning_Pilot,2020.1.3,MacIntel,60,,,,,,,0,media/djnb.png,1,Symb,u,RT,0,0,26,0,1,2,1.8,6,u,1,0.747175,26,0,26,0,1,,,,,,,,,,,,,,,,,,,,,,,,,,,,,,,,
,,,,,,,,,,,,,,,2,6,2020-12-21_13h11.06.577,Context_Learning_Pilot,2020.1.3,MacIntel,60,,,,,,,1,media/dnnb.png,1,Symb,i,RT,0,0,27,0,1,2,1.8,6,i,1,0.85808,27,0,27,0,1,,,,,,,,,,,,,,,,,,,,,,,,,,,,,,,,
,,,,,,,,,,,,,,,2,6,2020-12-21_13h11.06.577,Context_Learning_Pilot,2020.1.3,MacIntel,60,,,,,,,2,media/dinb.png,1,Symb,h,RT,0,0,28,0,1,2,1.8,6,h,1,0.78429,28,0,28,0,1,,,,,,,,,,,,,,,,,,,,,,,,,,,,,,,,
,,,,,,,,,,,,,,,2,6,2020-12-21_13h11.06.577,Context_Learning_Pilot,2020.1.3,MacIntel,60,,,,,,,3,media/ddnb.png,1,Symb,l,RT,0,0,29,0,1,2,1.8,6,l,1,1.960435,29,0,29,0,1,,,,,,,,,,,,,,,,,,,,,,,,,,,,,,,,
,,,,,,,,,,,,,,,2,6,2020-12-21_13h11.06.577,Context_Learning_Pilot,2020.1.3,MacIntel,60,,,,,,,3,media/ddnb.png,2,Symb,i,RT,0,0,30,0,1,2,1.8,6,i,1,0.88602,30,0,30,0,1,,,,,,,,,,,,,,,,,,,,,,,,,,,,,,,,
,,,,,,,,,,,,,,,2,6,2020-12-21_13h11.06.577,Context_Learning_Pilot,2020.1.3,MacIntel,60,,,,,,,2,media/dinb.png,1,Symb,h,RT,0,0,31,0,1,2,1.8,6,h,1,0.919975,31,0,31,0,1,,,,,,,,,,,,,,,,,,,,,,,,,,,,,,,,
,,,,,,,,,,,,,,,2,6,2020-12-21_13h11.06.577,Context_Learning_Pilot,2020.1.3,MacIntel,60,,,,,,,2,media/dinb.png,2,Symb,u,RT,0,0,32,0,1,2,1.8,6,h,0,0.99532,32,0,32,0,1,,,,,,,,,,,,,,,,,,,,,,,,,,,,,,,,
,,,,,,,,,,,,,,,2,6,2020-12-21_13h11.06.577,Context_Learning_Pilot,2020.1.3,MacIntel,60,,,,,,,3,media/ddnb.png,2,Symb,i,RT,0,0,33,0,1,2,1.8,6,i,1,0.87264,33,0,33,0,1,,,,,,,,,,,,,,,,,,,,,,,,,,,,,,,,
,,,,,,,,,,,,,,,2,6,2020-12-21_13h11.06.577,Context_Learning_Pilot,2020.1.3,MacIntel,60,,,,,,,0,media/djnb.png,2,Symb,h,RT,0,0,34,0,1,2,1.8,6,h,1,0.736885,34,0,34,0,1,,,,,,,,,,,,,,,,,,,,,,,,,,,,,,,,
,,,,,,,,,,,,,,,2,6,2020-12-21_13h11.06.577,Context_Learning_Pilot,2020.1.3,MacIntel,60,,,,,,,0,media/djnb.png,1,Symb,u,RT,0,0,35,0,1,2,1.8,6,u,1,0.58643,35,0,35,0,1,,,,,,,,,,,,,,,,,,,,,,,,,,,,,,,,
,,,,,,,,,,,,,,,2,6,2020-12-21_13h11.06.577,Context_Learning_Pilot,2020.1.3,MacIntel,60,,,,,,,1,media/dnnb.png,1,Symb,i,RT,0,0,36,0,1,2,1.8,6,i,1,0.71631,36,0,36,0,1,,,,,,,,,,,,,,,,,,,,,,,,,,,,,,,,
,,,,,,,,,,,,,,,2,6,2020-12-21_13h11.06.577,Context_Learning_Pilot,2020.1.3,MacIntel,60,,,,,,,2,media/dinb.png,1,Symb,h,RT,0,0,37,0,1,2,1.8,6,h,1,0.643755,37,0,37,0,1,,,,,,,,,,,,,,,,,,,,,,,,,,,,,,,,
,,,,,,,,,,,,,,,2,6,2020-12-21_13h11.06.577,Context_Learning_Pilot,2020.1.3,MacIntel,60,,,,,,,1,media/dnnb.png,2,Symb,l,RT,0,0,38,0,1,2,1.8,6,l,1,0.643435,38,0,38,0,1,,,,,,,,,,,,,,,,,,,,,,,,,,,,,,,,
,,,,,,,,,,,,,,,2,6,2020-12-21_13h11.06.577,Context_Learning_Pilot,2020.1.3,MacIntel,60,,,,,,,1,media/dnnb.png,2,Symb,l,RT,0,0,39,0,1,2,1.8,6,l,1,0.48775,39,0,39,0,1,,,,,,,,,,,,,,,,,,,,,,,,,,,,,,,,
,,,,,,,,,,,,,,,2,6,2020-12-21_13h11.06.577,Context_Learning_Pilot,2020.1.3,MacIntel,60,,,,,,,3,media/ddnb.png,2,Symb,i,RT,0,0,40,0,1,2,1.8,6,i,1,0.63369,40,0,40,0,1,,,,,,,,,,,,,,,,,,,,,,,,,,,,,,,,
,,,,,,,,,,,,,,,2,6,2020-12-21_13h11.06.577,Context_Learning_Pilot,2020.1.3,MacIntel,60,,,,,,,0,media/djnb.png,1,Symb,u,RT,0,0,41,0,1,2,1.8,6,u,1,0.724265,41,0,41,0,1,,,,,,,,,,,,,,,,,,,,,,,,,,,,,,,,
,,,,,,,,,,,,,,,2,6,2020-12-21_13h11.06.577,Context_Learning_Pilot,2020.1.3,MacIntel,60,,,,,,,1,media/dnnb.png,1,Symb,i,RT,0,0,42,0,1,2,1.8,6,i,1,0.739655,42,0,42,0,1,,,,,,,,,,,,,,,,,,,,,,,,,,,,,,,,
,,,,,,,,,,,,,,,2,6,2020-12-21_13h11.06.577,Context_Learning_Pilot,2020.1.3,MacIntel,60,,,,,,,2,media/dinb.png,1,Symb,h,RT,0,0,43,0,1,2,1.8,6,h,1,0.78649,43,0,43,0,1,,,,,,,,,,,,,,,,,,,,,,,,,,,,,,,,
,,,,,,,,,,,,,,,2,6,2020-12-21_13h11.06.577,Context_Learning_Pilot,2020.1.3,MacIntel,60,,,,,,,3,media/ddnb.png,1,Symb,l,RT,0,0,44,0,1,2,1.8,6,i,0,1.371565,44,0,44,0,1,,,,,,,,,,,,,,,,,,,,,,,,,,,,,,,,
,,,,,,,,,,,,,,,2,6,2020-12-21_13h11.06.577,Context_Learning_Pilot,2020.1.3,MacIntel,60,,,,,,,3,media/ddnb.png,1,Symb,l,RT,0,0,45,0,1,2,1.8,6,l,1,0.658205,45,0,45,0,1,,,,,,,,,,,,,,,,,,,,,,,,,,,,,,,,
,,,,,,,,,,,,,,,2,6,2020-12-21_13h11.06.577,Context_Learning_Pilot,2020.1.3,MacIntel,60,,,,,,,2,media/dinb.png,2,Symb,u,RT,0,0,46,0,1,2,1.8,6,u,1,1.19194,46,0,46,0,1,,,,,,,,,,,,,,,,,,,,,,,,,,,,,,,,
,,,,,,,,,,,,,,,2,6,2020-12-21_13h11.06.577,Context_Learning_Pilot,2020.1.3,MacIntel,60,,,,,,,0,media/djnb.png,2,Symb,h,RT,0,0,47,0,1,2,1.8,6,h,1,1.632635,47,0,47,0,1,,,,,,,,,,,,,,,,,,,,,,,,,,,,,,,,
,,,,,,,,,,,,,,,2,6,2020-12-21_13h11.06.577,Context_Learning_Pilot,2020.1.3,MacIntel,60,,,,,,,1,media/dnnb.png,2,Symb,l,RT,0,0,48,0,1,2,1.8,6,l,1,1.152995,48,0,48,0,1,,,,,,,,,,,,,,,,,,,,,,,,,,,,,,,,
,,,,,,,,,,,,,,,2,6,2020-12-21_13h11.06.577,Context_Learning_Pilot,2020.1.3,MacIntel,60,,,,,,,0,media/djnb.png,2,Symb,h,RT,0,0,49,0,1,2,1.8,6,h,1,1.04622,49,0,49,0,1,,,,,,,,,,,,,,,,,,,,,,,,,,,,,,,,
,,,,,,,,,,,,,,,2,6,2020-12-21_13h11.06.577,Context_Learning_Pilot,2020.1.3,MacIntel,60,,,,,,,2,media/dinb.png,1,Symb,h,RT,0,0,50,0,1,2,1.8,6,h,1,0.607255,50,0,50,0,1,,,,,,,,,,,,,,,,,,,,,,,,,,,,,,,,
,,,,,,,,,,,,,,,2,6,2020-12-21_13h11.06.577,Context_Learning_Pilot,2020.1.3,MacIntel,60,,,,,,,3,media/ddnb.png,2,Symb,i,RT,0,0,51,0,1,2,1.8,6,i,1,0.74952,51,0,51,0,1,,,,,,,,,,,,,,,,,,,,,,,,,,,,,,,,
,,,,,,,,,,,,,,,2,6,2020-12-21_13h11.06.577,Context_Learning_Pilot,2020.1.3,MacIntel,60,,,,,,,3,media/ddnb.png,2,Symb,i,RT,0,0,52,0,1,2,1.8,6,i,1,0.509575,52,0,52,0,1,,,,,,,,,,,,,,,,,,,,,,,,,,,,,,,,
,,,,,,,,,,,,,,,2,6,2020-12-21_13h11.06.577,Context_Learning_Pilot,2020.1.3,MacIntel,60,,,,,,,2,media/dinb.png,2,Symb,u,RT,0,0,53,0,1,2,1.8,6,u,1,0.839855,53,0,53,0,1,,,,,,,,,,,,,,,,,,,,,,,,,,,,,,,,
,,,,,,,,,,,,,,,2,6,2020-12-21_13h11.06.577,Context_Learning_Pilot,2020.1.3,MacIntel,60,,,,,,,2,media/dinb.png,2,Symb,u,RT,0,0,54,0,1,2,1.8,6,u,1,0.539675,54,0,54,0,1,,,,,,,,,,,,,,,,,,,,,,,,,,,,,,,,
,,,,,,,,,,,,,,,2,6,2020-12-21_13h11.06.577,Context_Learning_Pilot,2020.1.3,MacIntel,60,,,,,,,3,media/ddnb.png,1,Symb,l,RT,0,0,55,0,1,2,1.8,6,l,1,1.212345,55,0,55,0,1,,,,,,,,,,,,,,,,,,,,,,,,,,,,,,,,
,,,,,,,,,,,,,,,2,6,2020-12-21_13h11.06.577,Context_Learning_Pilot,2020.1.3,MacIntel,60,,,,,,,0,media/djnb.png,1,Symb,u,RT,0,0,56,0,1,2,1.8,6,u,1,0.90279,56,0,56,0,1,,,,,,,,,,,,,,,,,,,,,,,,,,,,,,,,
,,,,,,,,,,,,,,,2,6,2020-12-21_13h11.06.577,Context_Learning_Pilot,2020.1.3,MacIntel,60,,,,,,,0,media/djnb.png,1,Symb,u,RT,0,0,57,0,1,2,1.8,6,u,1,0.606955,57,0,57,0,1,,,,,,,,,,,,,,,,,,,,,,,,,,,,,,,,
,,,,,,,,,,,,,,,2,6,2020-12-21_13h11.06.577,Context_Learning_Pilot,2020.1.3,MacIntel,60,,,,,,,1,media/dnnb.png,1,Symb,i,RT,0,0,58,0,1,2,1.8,6,i,1,1.96737,58,0,58,0,1,,,,,,,,,,,,,,,,,,,,,,,,,,,,,,,,
,,,,,,,,,,,,,,,2,6,2020-12-21_13h11.06.577,Context_Learning_Pilot,2020.1.3,MacIntel,60,,,,,,,3,media/ddnb.png,1,Symb,l,RT,0,0,59,0,1,2,1.8,6,l,1,1.0229,59,0,59,0,1,,,,,,,,,,,,,,,,,,,,,,,,,,,,,,,,
,,,,,,,,,,,,,,,2,6,2020-12-21_13h11.06.577,Context_Learning_Pilot,2020.1.3,MacIntel,60,,,,,,,0,media/djnb.png,2,Symb,h,RT,0,0,60,0,1,2,1.8,6,h,1,0.840265,60,0,60,0,1,,,,,,,,,,,,,,,,,,,,,,,,,,,,,,,,
,,,,,,,,,,,,,,,2,6,2020-12-21_13h11.06.577,Context_Learning_Pilot,2020.1.3,MacIntel,60,,,,,,,1,media/dnnb.png,1,Symb,i,RT,0,0,61,0,1,2,1.8,6,i,1,1.298995,61,0,61,0,1,,,,,,,,,,,,,,,,,,,,,,,,,,,,,,,,
,,,,,,,,,,,,,,,2,6,2020-12-21_13h11.06.577,Context_Learning_Pilot,2020.1.3,MacIntel,60,,,,,,,2,media/dinb.png,1,Symb,h,RT,0,0,62,0,1,2,1.8,6,h,1,0.76303,62,0,62,0,1,,,,,,,,,,,,,,,,,,,,,,,,,,,,,,,,
,,,,,,,,,,,,,,,2,6,2020-12-21_13h11.06.577,Context_Learning_Pilot,2020.1.3,MacIntel,60,,,,,,,1,media/dnnb.png,2,Symb,l,RT,0,0,63,0,1,2,1.8,6,l,1,0.97682,63,0,63,0,1,,,,,,,,,,,,,,,,,,,,,,,,,,,,,,,,
,,,,,,,,,,,,,,,2,6,2020-12-21_13h11.06.577,Context_Learning_Pilot,2020.1.3,MacIntel,60,,,,,,,3,media/ddnb.png,1,Symb,l,RT,0,0,64,0,1,2,1.8,6,l,1,0.968265,64,0,64,0,1,,,,,,,,,,,,,,,,,,,,,,,,,,,,,,,,
,,,,,,,,,,,,,,,2,6,2020-12-21_13h11.06.577,Context_Learning_Pilot,2020.1.3,MacIntel,60,,,,,,,0,media/djnb.png,2,Symb,h,RT,0,0,65,0,1,2,1.8,6,h,1,1.806865,65,0,65,0,1,,,,,,,,,,,,,,,,,,,,,,,,,,,,,,,,
,,,,,,,,,,,,,,,2,6,2020-12-21_13h11.06.577,Context_Learning_Pilot,2020.1.3,MacIntel,60,,,,,,,2,media/dinb.png,1,Symb,h,RT,0,0,66,0,1,2,1.8,6,h,1,0.68194,66,0,66,0,1,,,,,,,,,,,,,,,,,,,,,,,,,,,,,,,,
,,,,,,,,,,,,,,,2,6,2020-12-21_13h11.06.577,Context_Learning_Pilot,2020.1.3,MacIntel,60,,,,,,,1,media/dnnb.png,1,Symb,i,RT,0,0,67,0,1,2,1.8,6,i,1,0.94558,67,0,67,0,1,,,,,,,,,,,,,,,,,,,,,,,,,,,,,,,,
,,,,,,,,,,,,,,,2,6,2020-12-21_13h11.06.577,Context_Learning_Pilot,2020.1.3,MacIntel,60,,,,,,,1,media/dnnb.png,2,Symb,l,RT,0,0,68,0,1,2,1.8,6,l,1,0.551775,68,0,68,0,1,,,,,,,,,,,,,,,,,,,,,,,,,,,,,,,,
,,,,,,,,,,,,,,,2,6,2020-12-21_13h11.06.577,Context_Learning_Pilot,2020.1.3,MacIntel,60,,,,,,,2,media/dinb.png,2,Symb,u,RT,0,0,69,0,1,2,1.8,6,u,1,0.674845,69,0,69,0,1,,,,,,,,,,,,,,,,,,,,,,,,,,,,,,,,
,,,,,,,,,,,,,,,2,6,2020-12-21_13h11.06.577,Context_Learning_Pilot,2020.1.3,MacIntel,60,,,,,,,0,media/djnb.png,1,Symb,u,RT,0,0,70,0,1,2,1.8,6,u,1,0.852815,70,0,70,0,1,,,,,,,,,,,,,,,,,,,,,,,,,,,,,,,,
,,,,,,,,,,,,,,,2,6,2020-12-21_13h11.06.577,Context_Learning_Pilot,2020.1.3,MacIntel,60,,,,,,,3,media/ddnb.png,1,Symb,l,RT,0,0,71,0,1,2,1.8,6,l,1,0.769115,71,0,71,0,1,,,,,,,,,,,,,,,,,,,,,,,,,,,,,,,,
,,,,,,,,,,,,,,,2,6,2020-12-21_13h11.06.577,Context_Learning_Pilot,2020.1.3,MacIntel,60,,,,,,,1,media/dnnb.png,2,Symb,l,RT,0,0,72,0,1,2,1.8,6,l,1,0.88564,72,0,72,0,1,,,,,,,,,,,,,,,,,,,,,,,,,,,,,,,,
,,,,,,,,,,,,,,,2,6,2020-12-21_13h11.06.577,Context_Learning_Pilot,2020.1.3,MacIntel,60,,,,,,,0,media/djnb.png,2,Symb,h,RT,0,0,73,0,1,2,1.8,6,h,1,0.869335,73,0,73,0,1,,,,,,,,,,,,,,,,,,,,,,,,,,,,,,,,
,,,,,,,,,,,,,,,2,6,2020-12-21_13h11.06.577,Context_Learning_Pilot,2020.1.3,MacIntel,60,,,,,,,0,media/djnb.png,1,Symb,u,RT,0,0,74,0,1,2,1.8,6,u,1,0.64565,74,0,74,0,1,,,,,,,,,,,,,,,,,,,,,,,,,,,,,,,,
,,,,,,,,,,,,,,,2,6,2020-12-21_13h11.06.577,Context_Learning_Pilot,2020.1.3,MacIntel,60,,,,,,,2,media/dinb.png,2,Symb,u,RT,0,0,75,0,1,2,1.8,6,u,1,0.818795,75,0,75,0,1,,,,,,,,,,,,,,,,,,,,,,,,,,,,,,,,
,,,,,,,,,,,,,,,2,6,2020-12-21_13h11.06.577,Context_Learning_Pilot,2020.1.3,MacIntel,60,,,,,,,3,media/ddnb.png,2,Symb,i,RT,0,0,76,0,1,2,1.8,6,i,1,0.919615,76,0,76,0,1,,,,,,,,,,,,,,,,,,,,,,,,,,,,,,,,
,,,,,,,,,,,,,,,2,6,2020-12-21_13h11.06.577,Context_Learning_Pilot,2020.1.3,MacIntel,60,,,,,,,3,media/ddnb.png,2,Symb,i,RT,0,0,77,0,1,2,1.8,6,i,1,0.531435,77,0,77,0,1,,,,,,,,,,,,,,,,,,,,,,,,,,,,,,,,
,,,,,,,,,,,,,,,2,6,2020-12-21_13h11.06.577,Context_Learning_Pilot,2020.1.3,MacIntel,60,,,,,,,1,media/dnnb.png,1,Symb,i,RT,0,0,78,0,1,2,1.8,6,i,1,0.735035,78,0,78,0,1,,,,,,,,,,,,,,,,,,,,,,,,,,,,,,,,
,,,,,,,,,,,,,,,2,6,2020-12-21_13h11.06.577,Context_Learning_Pilot,2020.1.3,MacIntel,60,,,,,,,2,media/dinb.png,1,Symb,h,RT,0,0,79,0,1,2,1.8,6,h,1,0.757695,79,0,79,0,1,,,,,,,,,,,,,,,,,,,,,,,,,,,,,,,,
,,,,,,,,,,,,,,,2,6,2020-12-21_13h11.06.577,Context_Learning_Pilot,2020.1.3,MacIntel,60,,,,,,,3,media/ddnb.png,1,Symb,l,RT,0,0,80,0,1,2,1.8,6,l,1,0.89759,80,0,80,0,1,,,,,,,,,,,,,,,,,,,,,,,,,,,,,,,,
,,,,,,,,,,,,,,,2,6,2020-12-21_13h11.06.577,Context_Learning_Pilot,2020.1.3,MacIntel,60,,,,,,,0,media/djnb.png,2,Symb,h,RT,0,0,81,0,1,2,1.8,6,h,1,0.6003,81,0,81,0,1,,,,,,,,,,,,,,,,,,,,,,,,,,,,,,,,
,,,,,,,,,,,,,,,2,6,2020-12-21_13h11.06.577,Context_Learning_Pilot,2020.1.3,MacIntel,60,,,,,,,3,media/ddnb.png,2,Symb,i,RT,0,0,82,0,1,2,1.8,6,i,1,1.046725,82,0,82,0,1,,,,,,,,,,,,,,,,,,,,,,,,,,,,,,,,
,,,,,,,,,,,,,,,2,6,2020-12-21_13h11.06.577,Context_Learning_Pilot,2020.1.3,MacIntel,60,,,,,,,2,media/dinb.png,2,Symb,u,RT,0,0,83,0,1,2,1.8,6,u,1,0.77468,83,0,83,0,1,,,,,,,,,,,,,,,,,,,,,,,,,,,,,,,,
,,,,,,,,,,,,,,,2,6,2020-12-21_13h11.06.577,Context_Learning_Pilot,2020.1.3,MacIntel,60,,,,,,,2,media/dinb.png,1,Symb,h,RT,0,0,84,0,1,2,1.8,6,h,1,0.548435,84,0,84,0,1,,,,,,,,,,,,,,,,,,,,,,,,,,,,,,,,
,,,,,,,,,,,,,,,2,6,2020-12-21_13h11.06.577,Context_Learning_Pilot,2020.1.3,MacIntel,60,,,,,,,1,media/dnnb.png,1,Symb,i,RT,0,0,85,0,1,2,1.8,6,i,1,0.715895,85,0,85,0,1,,,,,,,,,,,,,,,,,,,,,,,,,,,,,,,,
,,,,,,,,,,,,,,,2,6,2020-12-21_13h11.06.577,Context_Learning_Pilot,2020.1.3,MacIntel,60,,,,,,,2,media/dinb.png,2,Symb,u,RT,0,0,86,0,1,2,1.8,6,u,1,1.029205,86,0,86,0,1,,,,,,,,,,,,,,,,,,,,,,,,,,,,,,,,
,,,,,,,,,,,,,,,2,6,2020-12-21_13h11.06.577,Context_Learning_Pilot,2020.1.3,MacIntel,60,,,,,,,0,media/djnb.png,2,Symb,h,RT,0,0,87,0,1,2,1.8,6,h,1,0.60959,87,0,87,0,1,,,,,,,,,,,,,,,,,,,,,,,,,,,,,,,,
,,,,,,,,,,,,,,,2,6,2020-12-21_13h11.06.577,Context_Learning_Pilot,2020.1.3,MacIntel,60,,,,,,,1,media/dnnb.png,1,Symb,i,RT,0,0,88,0,1,2,1.8,6,i,1,0.866005,88,0,88,0,1,,,,,,,,,,,,,,,,,,,,,,,,,,,,,,,,
,,,,,,,,,,,,,,,2,6,2020-12-21_13h11.06.577,Context_Learning_Pilot,2020.1.3,MacIntel,60,,,,,,,0,media/djnb.png,1,Symb,u,RT,0,0,89,0,1,2,1.8,6,u,1,1.100795,89,0,89,0,1,,,,,,,,,,,,,,,,,,,,,,,,,,,,,,,,
,,,,,,,,,,,,,,,2,6,2020-12-21_13h11.06.577,Context_Learning_Pilot,2020.1.3,MacIntel,60,,,,,,,1,media/dnnb.png,2,Symb,l,RT,0,0,90,0,1,2,1.8,6,i,0,1.15535,90,0,90,0,1,,,,,,,,,,,,,,,,,,,,,,,,,,,,,,,,
,,,,,,,,,,,,,,,2,6,2020-12-21_13h11.06.577,Context_Learning_Pilot,2020.1.3,MacIntel,60,,,,,,,3,media/ddnb.png,2,Symb,i,RT,0,0,91,0,1,2,1.8,6,i,1,0.682985,91,0,91,0,1,,,,,,,,,,,,,,,,,,,,,,,,,,,,,,,,
,,,,,,,,,,,,,,,2,6,2020-12-21_13h11.06.577,Context_Learning_Pilot,2020.1.3,MacIntel,60,,,,,,,3,media/ddnb.png,1,Symb,l,RT,0,0,92,0,1,2,1.8,6,l,1,0.698575,92,0,92,0,1,,,,,,,,,,,,,,,,,,,,,,,,,,,,,,,,
,,,,,,,,,,,,,,,2,6,2020-12-21_13h11.06.577,Context_Learning_Pilot,2020.1.3,MacIntel,60,,,,,,,0,media/djnb.png,1,Symb,u,RT,0,0,93,0,1,2,1.8,6,u,1,0.754165,93,0,93,0,1,,,,,,,,,,,,,,,,,,,,,,,,,,,,,,,,
,,,,,,,,,,,,,,,2,6,2020-12-21_13h11.06.577,Context_Learning_Pilot,2020.1.3,MacIntel,60,,,,,,,1,media/dnnb.png,2,Symb,l,RT,0,0,94,0,1,2,1.8,6,l,1,0.852985,94,0,94,0,1,,,,,,,,,,,,,,,,,,,,,,,,,,,,,,,,
,,,,,,,,,,,,,,,2,6,2020-12-21_13h11.06.577,Context_Learning_Pilot,2020.1.3,MacIntel,60,,,,,,,2,media/dinb.png,1,Symb,h,RT,0,0,95,0,1,2,1.8,6,h,1,0.739095,95,0,95,0,1,,,,,,,,,,,,,,,,,,,,,,,,,,,,,,,,
,,,,,,,,,,,,,,,2,6,2020-12-21_13h11.06.577,Context_Learning_Pilot,2020.1.3,MacIntel,60,,,,,h,1.30558,0,media/djnb.png,1,Symb,u,TR,0,0,0,0,1,1,0.876405504,6,,,,,,,,,,,,,,h,13.872385,u,1,1.5495,0,0,0,0,1,,,,,,,,,,,,,,,,,
,,,,,,,,,,,,,,,2,6,2020-12-21_13h11.06.577,Context_Learning_Pilot,2020.1.3,MacIntel,60,,,,,,,,,,,,,,,,,,,,,,,,,,,,,,,,,,,,,,,,,,,,0,0,0,0,1,,,,,,,,,,,,
,,,,,,,,,,,,,,,2,6,2020-12-21_13h11.06.577,Context_Learning_Pilot,2020.1.3,MacIntel,60,,,,,,,1,media/dnnb.png,1,Symb,i,TR,0,0,1,0,1,1,0.688450879,6,,,,,,,,,,,,,,,,i,1,1.55815,0,0,0,0,1,,,,,,,,,,,,,,,,,
,,,,,,,,,,,,,,,2,6,2020-12-21_13h11.06.577,Context_Learning_Pilot,2020.1.3,MacIntel,60,,,,,,,,,,,,,,,,,,,,,,,,,,,,,,,,,,,,,,,,,,,,1,0,1,0,1,,,,,,,,,,,,
,,,,,,,,,,,,,,,2,6,2020-12-21_13h11.06.577,Context_Learning_Pilot,2020.1.3,MacIntel,60,,,,,,,2,media/dinb.png,1,Symb,h,TR,0,0,2,0,1,1,0.086070695,6,,,,,,,,,,,,,,,,u,0,1.61195,0,0,0,0,1,,,,,,,,,,,,,,,,,
,,,,,,,,,,,,,,,2,6,2020-12-21_13h11.06.577,Context_Learning_Pilot,2020.1.3,MacIntel,60,,,,,,,,,,,,,,,,,,,,,,,,,,,,,,,,,,,,,,,,,,,,2,0,2,0,1,,,,,,,,,,,,
,,,,,,,,,,,,,,,2,6,2020-12-21_13h11.06.577,Context_Learning_Pilot,2020.1.3,MacIntel,60,,,,,,,0,media/djnb.png,1,Symb,u,TR,0,0,3,0,1,1,1.181691429,6,,,,,,,,,,,,,,,,u,1,1.59379,0,0,0,0,1,,,,,,,,,,,,,,,,,
,,,,,,,,,,,,,,,2,6,2020-12-21_13h11.06.577,Context_Learning_Pilot,2020.1.3,MacIntel,60,,,,,,,,,,,,,,,,,,,,,,,,,,,,,,,,,,,,,,,,,,,,3,0,3,0,1,,,,,,,,,,,,
,,,,,,,,,,,,,,,2,6,2020-12-21_13h11.06.577,Context_Learning_Pilot,2020.1.3,MacIntel,60,,,,,,,3,media/ddnb.png,1,Symb,l,TR,0,0,4,0,1,1,0.230926524,6,,,,,,,,,,,,,,,,h,0,1.63622,0,0,0,0,1,,,,,,,,,,,,,,,,,
,,,,,,,,,,,,,,,2,6,2020-12-21_13h11.06.577,Context_Learning_Pilot,2020.1.3,MacIntel,60,,,,,,,,,,,,,,,,,,,,,,,,,,,,,,,,,,,,,,,,,,,,4,0,4,0,1,,,,,,,,,,,,
,,,,,,,,,,,,,,,2,6,2020-12-21_13h11.06.577,Context_Learning_Pilot,2020.1.3,MacIntel,60,,,,,,,1,media/dnnb.png,1,Symb,i,TR,0,0,5,0,1,1,0.050595705,6,,,,,,,,,,,,,,,,l,0,1.72733,0,0,0,0,1,,,,,,,,,,,,,,,,,
,,,,,,,,,,,,,,,2,6,2020-12-21_13h11.06.577,Context_Learning_Pilot,2020.1.3,MacIntel,60,,,,,,,,,,,,,,,,,,,,,,,,,,,,,,,,,,,,,,,,,,,,5,0,5,0,1,,,,,,,,,,,,
,,,,,,,,,,,,,,,2,6,2020-12-21_13h11.06.577,Context_Learning_Pilot,2020.1.3,MacIntel,60,,,,,,,3,media/ddnb.png,1,Symb,l,TR,0,0,6,0,1,1,0.201320887,6,,,,,,,,,,,,,,,,i,0,1.64541,0,0,0,0,1,,,,,,,,,,,,,,,,,
,,,,,,,,,,,,,,,2,6,2020-12-21_13h11.06.577,Context_Learning_Pilot,2020.1.3,MacIntel,60,,,,,,,,,,,,,,,,,,,,,,,,,,,,,,,,,,,,,,,,,,,,6,0,6,0,1,,,,,,,,,,,,
,,,,,,,,,,,,,,,2,6,2020-12-21_13h11.06.577,Context_Learning_Pilot,2020.1.3,MacIntel,60,,,,,,,2,media/dinb.png,1,Symb,h,TR,0,0,7,0,1,1,0.625932101,6,,,,,,,,,,,,,,,,h,1,1.65573,0,0,0,0,1,,,,,,,,,,,,,,,,,
,,,,,,,,,,,,,,,2,6,2020-12-21_13h11.06.577,Context_Learning_Pilot,2020.1.3,MacIntel,60,,,,,,,,,,,,,,,,,,,,,,,,,,,,,,,,,,,,,,,,,,,,7,0,7,0,1,,,,,,,,,,,,
,,,,,,,,,,,,,,,2,6,2020-12-21_13h11.06.577,Context_Learning_Pilot,2020.1.3,MacIntel,60,,,,,,,3,media/ddnb.png,1,Symb,l,TR,0,0,8,0,1,1,0.881386812,6,,,,,,,,,,,,,,,,l,1,1.518465,0,0,0,0,1,,,,,,,,,,,,,,,,,
,,,,,,,,,,,,,,,2,6,2020-12-21_13h11.06.577,Context_Learning_Pilot,2020.1.3,MacIntel,60,,,,,,,,,,,,,,,,,,,,,,,,,,,,,,,,,,,,,,,,,,,,8,0,8,0,1,,,,,,,,,,,,
,,,,,,,,,,,,,,,2,6,2020-12-21_13h11.06.577,Context_Learning_Pilot,2020.1.3,MacIntel,60,,,,,,,2,media/dinb.png,1,Symb,h,TR,0,0,9,0,1,1,0.197541613,6,,,,,,,,,,,,,,,,i,0,1.64031,0,0,0,0,1,,,,,,,,,,,,,,,,,
,,,,,,,,,,,,,,,2,6,2020-12-21_13h11.06.577,Context_Learning_Pilot,2020.1.3,MacIntel,60,,,,,,,,,,,,,,,,,,,,,,,,,,,,,,,,,,,,,,,,,,,,9,0,9,0,1,,,,,,,,,,,,
,,,,,,,,,,,,,,,2,6,2020-12-21_13h11.06.577,Context_Learning_Pilot,2020.1.3,MacIntel,60,,,,,,,0,media/djnb.png,1,Symb,u,TR,0,0,10,0,1,1,0.702783973,6,,,,,,,,,,,,,,,,u,1,1.43891,0,0,0,0,1,,,,,,,,,,,,,,,,,
,,,,,,,,,,,,,,,2,6,2020-12-21_13h11.06.577,Context_Learning_Pilot,2020.1.3,MacIntel,60,,,,,,,,,,,,,,,,,,,,,,,,,,,,,,,,,,,,,,,,,,,,10,0,10,0,1,,,,,,,,,,,,
,,,,,,,,,,,,,,,2,6,2020-12-21_13h11.06.577,Context_Learning_Pilot,2020.1.3,MacIntel,60,,,,,,,1,media/dnnb.png,1,Symb,i,TR,0,0,11,0,1,1,0.256538552,6,,,,,,,,,,,,,,,,i,1,1.561345,0,0,0,0,1,,,,,,,,,,,,,,,,,
,,,,,,,,,,,,,,,2,6,2020-12-21_13h11.06.577,Context_Learning_Pilot,2020.1.3,MacIntel,60,,,,,,,,,,,,,,,,,,,,,,,,,,,,,,,,,,,,,,,,,,,,11,0,11,0,1,,,,,,,,,,,,
,,,,,,,,,,,,,,,2,6,2020-12-21_13h11.06.577,Context_Learning_Pilot,2020.1.3,MacIntel,60,,,,,,,2,media/dinb.png,1,Symb,h,TR,0,0,12,0,1,1,1.285442563,6,,,,,,,,,,,,,,,,h,1,1.503815,0,0,0,0,1,,,,,,,,,,,,,,,,,
,,,,,,,,,,,,,,,2,6,2020-12-21_13h11.06.577,Context_Learning_Pilot,2020.1.3,MacIntel,60,,,,,,,,,,,,,,,,,,,,,,,,,,,,,,,,,,,,,,,,,,,,12,0,12,0,1,,,,,,,,,,,,
,,,,,,,,,,,,,,,2,6,2020-12-21_13h11.06.577,Context_Learning_Pilot,2020.1.3,MacIntel,60,,,,,,,1,media/dnnb.png,1,Symb,i,TR,0,0,13,0,1,1,0.810345512,6,,,,,,,,,,,,,,,,i,1,1.495545,0,0,0,0,1,,,,,,,,,,,,,,,,,
,,,,,,,,,,,,,,,2,6,2020-12-21_13h11.06.577,Context_Learning_Pilot,2020.1.3,MacIntel,60,,,,,,,,,,,,,,,,,,,,,,,,,,,,,,,,,,,,,,,,,,,,13,0,13,0,1,,,,,,,,,,,,
,,,,,,,,,,,,,,,2,6,2020-12-21_13h11.06.577,Context_Learning_Pilot,2020.1.3,MacIntel,60,,,,,,,0,media/djnb.png,1,Symb,u,TR,0,0,14,0,1,1,0.743081013,6,,,,,,,,,,,,,,,,u,1,1.570415,0,0,0,0,1,,,,,,,,,,,,,,,,,
,,,,,,,,,,,,,,,2,6,2020-12-21_13h11.06.577,Context_Learning_Pilot,2020.1.3,MacIntel,60,,,,,,,,,,,,,,,,,,,,,,,,,,,,,,,,,,,,,,,,,,,,14,0,14,0,1,,,,,,,,,,,,
,,,,,,,,,,,,,,,2,6,2020-12-21_13h11.06.577,Context_Learning_Pilot,2020.1.3,MacIntel,60,,,,,,,3,media/ddnb.png,1,Symb,l,TR,0,0,15,0,1,1,1.180921004,6,,,,,,,,,,,,,,,,l,1,1.64167,0,0,0,0,1,,,,,,,,,,,,,,,,,
,,,,,,,,,,,,,,,2,6,2020-12-21_13h11.06.577,Context_Learning_Pilot,2020.1.3,MacIntel,60,,,,,,,,,,,,,,,,,,,,,,,,,,,,,,,,,,,,,,,,,,,,15,0,15,0,1,,,,,,,,,,,,
,,,,,,,,,,,,,,,2,6,2020-12-21_13h11.06.577,Context_Learning_Pilot,2020.1.3,MacIntel,60,,,,,,,0,media/djnb.png,1,Symb,u,TR,0,0,16,0,1,1,1.193505758,6,,,,,,,,,,,,,,,,u,1,1.6275,0,0,0,0,1,,,,,,,,,,,,,,,,,
,,,,,,,,,,,,,,,2,6,2020-12-21_13h11.06.577,Context_Learning_Pilot,2020.1.3,MacIntel,60,,,,,,,,,,,,,,,,,,,,,,,,,,,,,,,,,,,,,,,,,,,,16,0,16,0,1,,,,,,,,,,,,
,,,,,,,,,,,,,,,2,6,2020-12-21_13h11.06.577,Context_Learning_Pilot,2020.1.3,MacIntel,60,,,,,,,3,media/ddnb.png,1,Symb,l,TR,0,0,17,0,1,1,0.481468968,6,,,,,,,,,,,,,,,,u,0,1.51257,0,0,0,0,1,,,,,,,,,,,,,,,,,
,,,,,,,,,,,,,,,2,6,2020-12-21_13h11.06.577,Context_Learning_Pilot,2020.1.3,MacIntel,60,,,,,,,,,,,,,,,,,,,,,,,,,,,,,,,,,,,,,,,,,,,,17,0,17,0,1,,,,,,,,,,,,
,,,,,,,,,,,,,,,2,6,2020-12-21_13h11.06.577,Context_Learning_Pilot,2020.1.3,MacIntel,60,,,,,,,2,media/dinb.png,1,Symb,h,TR,0,0,18,0,1,1,0.878261384,6,,,,,,,,,,,,,,,,h,1,1.546755,0,0,0,0,1,,,,,,,,,,,,,,,,,
,,,,,,,,,,,,,,,2,6,2020-12-21_13h11.06.577,Context_Learning_Pilot,2020.1.3,MacIntel,60,,,,,,,,,,,,,,,,,,,,,,,,,,,,,,,,,,,,,,,,,,,,18,0,18,0,1,,,,,,,,,,,,
,,,,,,,,,,,,,,,2,6,2020-12-21_13h11.06.577,Context_Learning_Pilot,2020.1.3,MacIntel,60,,,,,,,1,media/dnnb.png,1,Symb,i,TR,0,0,19,0,1,1,0.485619089,6,,,,,,,,,,,,,,,,l,0,1.66993,0,0,0,0,1,,,,,,,,,,,,,,,,,
,,,,,,,,,,,,,,,2,6,2020-12-21_13h11.06.577,Context_Learning_Pilot,2020.1.3,MacIntel,60,,,,,,,,,,,,,,,,,,,,,,,,,,,,,,,,,,,,,,,,,,,,19,0,19,0,1,,,,,,,,,,,,
,,,,,,,,,,,,,,,2,6,2020-12-21_13h11.06.577,Context_Learning_Pilot,2020.1.3,MacIntel,60,,,,,,,3,media/ddnb.png,1,Symb,l,TR,0,0,20,0,1,1,0.485190764,6,,,,,,,,,,,,,,,,u,0,1.61181,0,0,0,0,1,,,,,,,,,,,,,,,,,
,,,,,,,,,,,,,,,2,6,2020-12-21_13h11.06.577,Context_Learning_Pilot,2020.1.3,MacIntel,60,,,,,,,,,,,,,,,,,,,,,,,,,,,,,,,,,,,,,,,,,,,,20,0,20,0,1,,,,,,,,,,,,
,,,,,,,,,,,,,,,2,6,2020-12-21_13h11.06.577,Context_Learning_Pilot,2020.1.3,MacIntel,60,,,,,,,1,media/dnnb.png,1,Symb,i,TR,0,0,21,0,1,1,0.064669428,6,,,,,,,,,,,,,,,,l,0,1.67723,0,0,0,0,1,,,,,,,,,,,,,,,,,
,,,,,,,,,,,,,,,2,6,2020-12-21_13h11.06.577,Context_Learning_Pilot,2020.1.3,MacIntel,60,,,,,,,,,,,,,,,,,,,,,,,,,,,,,,,,,,,,,,,,,,,,21,0,21,0,1,,,,,,,,,,,,
,,,,,,,,,,,,,,,2,6,2020-12-21_13h11.06.577,Context_Learning_Pilot,2020.1.3,MacIntel,60,,,,,,,2,media/dinb.png,1,Symb,h,TR,0,0,22,0,1,1,0.08761759,6,,,,,,,,,,,,,,,,i,0,1.564955,0,0,0,0,1,,,,,,,,,,,,,,,,,
,,,,,,,,,,,,,,,2,6,2020-12-21_13h11.06.577,Context_Learning_Pilot,2020.1.3,MacIntel,60,,,,,,,,,,,,,,,,,,,,,,,,,,,,,,,,,,,,,,,,,,,,22,0,22,0,1,,,,,,,,,,,,
,,,,,,,,,,,,,,,2,6,2020-12-21_13h11.06.577,Context_Learning_Pilot,2020.1.3,MacIntel,60,,,,,,,0,media/djnb.png,1,Symb,u,TR,0,0,23,0,1,1,1.237954293,6,,,,,,,,,,,,,,,,u,1,1.65982,0,0,0,0,1,,,,,,,,,,,,,,,,,
,,,,,,,,,,,,,,,2,6,2020-12-21_13h11.06.577,Context_Learning_Pilot,2020.1.3,MacIntel,60,,,,,,,,,,,,,,,,,,,,,,,,,,,,,,,,,,,,,,,,,,,,23,0,23,0,1,,,,,,,,,,,,
,,,,,,,,,,,,,,,2,6,2020-12-21_13h11.06.577,Context_Learning_Pilot,2020.1.3,MacIntel,60,,,,,,,0,media/djnb.png,1,Symb,u,TR,0,0,24,0,1,1,1.275986038,6,,,,,,,,,,,,,,,,u,1,1.610005,0,0,0,0,1,,,,,,,,,,,,,,,,,
,,,,,,,,,,,,,,,2,6,2020-12-21_13h11.06.577,Context_Learning_Pilot,2020.1.3,MacIntel,60,,,,,,,,,,,,,,,,,,,,,,,,,,,,,,,,,,,,,,,,,,,,24,0,24,0,1,,,,,,,,,,,,
,,,,,,,,,,,,,,,2,6,2020-12-21_13h11.06.577,Context_Learning_Pilot,2020.1.3,MacIntel,60,,,,,,,0,media/djnb.png,1,Symb,u,TR,0,0,25,0,1,1,0.083946215,6,,,,,,,,,,,,,,,,u,1,1.648,0,0,0,0,1,,,,,,,,,,,,,,,,,
,,,,,,,,,,,,,,,2,6,2020-12-21_13h11.06.577,Context_Learning_Pilot,2020.1.3,MacIntel,60,,,,,,,,,,,,,,,,,,,,,,,,,,,,,,,,,,,,,,,,,,,,25,0,25,0,1,,,,,,,,,,,,
,,,,,,,,,,,,,,,2,6,2020-12-21_13h11.06.577,Context_Learning_Pilot,2020.1.3,MacIntel,60,,,,,,,1,media/dnnb.png,1,Symb,i,TR,0,0,26,0,1,1,0.053232466,6,,,,,,,,,,,,,,,,i,1,1.587585,0,0,0,0,1,,,,,,,,,,,,,,,,,
,,,,,,,,,,,,,,,2,6,2020-12-21_13h11.06.577,Context_Learning_Pilot,2020.1.3,MacIntel,60,,,,,,,,,,,,,,,,,,,,,,,,,,,,,,,,,,,,,,,,,,,,26,0,26,0,1,,,,,,,,,,,,
,,,,,,,,,,,,,,,2,6,2020-12-21_13h11.06.577,Context_Learning_Pilot,2020.1.3,MacIntel,60,,,,,,,1,media/dnnb.png,1,Symb,i,TR,0,0,27,0,1,1,0.775757421,6,,,,,,,,,,,,,,,,i,1,1.61388,0,0,0,0,1,,,,,,,,,,,,,,,,,
,,,,,,,,,,,,,,,2,6,2020-12-21_13h11.06.577,Context_Learning_Pilot,2020.1.3,MacIntel,60,,,,,,,,,,,,,,,,,,,,,,,,,,,,,,,,,,,,,,,,,,,,27,0,27,0,1,,,,,,,,,,,,
,,,,,,,,,,,,,,,2,6,2020-12-21_13h11.06.577,Context_Learning_Pilot,2020.1.3,MacIntel,60,,,,,,,2,media/dinb.png,1,Symb,h,TR,0,0,28,0,1,1,0.446326973,6,,,,,,,,,,,,,,,,i,0,1.721195,0,0,0,0,1,,,,,,,,,,,,,,,,,
,,,,,,,,,,,,,,,2,6,2020-12-21_13h11.06.577,Context_Learning_Pilot,2020.1.3,MacIntel,60,,,,,,,,,,,,,,,,,,,,,,,,,,,,,,,,,,,,,,,,,,,,28,0,28,0,1,,,,,,,,,,,,
,,,,,,,,,,,,,,,2,6,2020-12-21_13h11.06.577,Context_Learning_Pilot,2020.1.3,MacIntel,60,,,,,,,3,media/ddnb.png,1,Symb,l,TR,0,0,29,0,1,1,0.552957051,6,,,,,,,,,,,,,,,,i,0,1.577875,0,0,0,0,1,,,,,,,,,,,,,,,,,
,,,,,,,,,,,,,,,2,6,2020-12-21_13h11.06.577,Context_Learning_Pilot,2020.1.3,MacIntel,60,,,,,,,,,,,,,,,,,,,,,,,,,,,,,,,,,,,,,,,,,,,,29,0,29,0,1,,,,,,,,,,,,
,,,,,,,,,,,,,,,2,6,2020-12-21_13h11.06.577,Context_Learning_Pilot,2020.1.3,MacIntel,60,,,,,,,2,media/dinb.png,1,Symb,h,TR,0,0,30,0,1,1,0.327649238,6,,,,,,,,,,,,,,,,h,1,1.70019,0,0,0,0,1,,,,,,,,,,,,,,,,,
,,,,,,,,,,,,,,,2,6,2020-12-21_13h11.06.577,Context_Learning_Pilot,2020.1.3,MacIntel,60,,,,,,,,,,,,,,,,,,,,,,,,,,,,,,,,,,,,,,,,,,,,30,0,30,0,1,,,,,,,,,,,,
,,,,,,,,,,,,,,,2,6,2020-12-21_13h11.06.577,Context_Learning_Pilot,2020.1.3,MacIntel,60,,,,,,,3,media/ddnb.png,1,Symb,l,TR,0,0,31,0,1,1,0.759483607,6,,,,,,,,,,,,,,,,l,1,1.5245,0,0,0,0,1,,,,,,,,,,,,,,,,,
,,,,,,,,,,,,,,,2,6,2020-12-21_13h11.06.577,Context_Learning_Pilot,2020.1.3,MacIntel,60,,,,,,,,,,,,,,,,,,,,,,,,,,,,,,,,,,,,,,,,,,,,31,0,31,0,1,,,,,,,,,,,,
,,,,,,,,,,,,,,,2,6,2020-12-21_13h11.06.577,Context_Learning_Pilot,2020.1.3,MacIntel,60,,,,,,,0,media/djnb.png,1,Symb,u,TR,0,0,32,0,1,1,1.229531621,6,,,,,,,,,,,,,,,,u,1,1.60218,0,0,0,0,1,,,,,,,,,,,,,,,,,
,,,,,,,,,,,,,,,2,6,2020-12-21_13h11.06.577,Context_Learning_Pilot,2020.1.3,MacIntel,60,,,,,,,,,,,,,,,,,,,,,,,,,,,,,,,,,,,,,,,,,,,,32,0,32,0,1,,,,,,,,,,,,
,,,,,,,,,,,,,,,2,6,2020-12-21_13h11.06.577,Context_Learning_Pilot,2020.1.3,MacIntel,60,,,,,,,3,media/ddnb.png,1,Symb,l,TR,0,0,33,0,1,1,0.367007766,6,,,,,,,,,,,,,,,,u,0,1.503795,0,0,0,0,1,,,,,,,,,,,,,,,,,
,,,,,,,,,,,,,,,2,6,2020-12-21_13h11.06.577,Context_Learning_Pilot,2020.1.3,MacIntel,60,,,,,,,,,,,,,,,,,,,,,,,,,,,,,,,,,,,,,,,,,,,,33,0,33,0,1,,,,,,,,,,,,
,,,,,,,,,,,,,,,2,6,2020-12-21_13h11.06.577,Context_Learning_Pilot,2020.1.3,MacIntel,60,,,,,,,3,media/ddnb.png,1,Symb,l,TR,0,0,34,0,1,1,0.39674675,6,,,,,,,,,,,,,,,,h,0,1.559235,0,0,0,0,1,,,,,,,,,,,,,,,,,
,,,,,,,,,,,,,,,2,6,2020-12-21_13h11.06.577,Context_Learning_Pilot,2020.1.3,MacIntel,60,,,,,,,,,,,,,,,,,,,,,,,,,,,,,,,,,,,,,,,,,,,,34,0,34,0,1,,,,,,,,,,,,
,,,,,,,,,,,,,,,2,6,2020-12-21_13h11.06.577,Context_Learning_Pilot,2020.1.3,MacIntel,60,,,,,,,2,media/dinb.png,1,Symb,h,TR,0,0,35,0,1,1,1.072990408,6,,,,,,,,,,,,,,,,h,1,1.61141,0,0,0,0,1,,,,,,,,,,,,,,,,,
,,,,,,,,,,,,,,,2,6,2020-12-21_13h11.06.577,Context_Learning_Pilot,2020.1.3,MacIntel,60,,,,,,,,,,,,,,,,,,,,,,,,,,,,,,,,,,,,,,,,,,,,35,0,35,0,1,,,,,,,,,,,,
,,,,,,,,,,,,,,,2,6,2020-12-21_13h11.06.577,Context_Learning_Pilot,2020.1.3,MacIntel,60,,,,,,,0,media/djnb.png,1,Symb,u,TR,0,0,36,0,1,1,1.124265708,6,,,,,,,,,,,,,,,,u,1,1.48592,0,0,0,0,1,,,,,,,,,,,,,,,,,
,,,,,,,,,,,,,,,2,6,2020-12-21_13h11.06.577,Context_Learning_Pilot,2020.1.3,MacIntel,60,,,,,,,,,,,,,,,,,,,,,,,,,,,,,,,,,,,,,,,,,,,,36,0,36,0,1,,,,,,,,,,,,
,,,,,,,,,,,,,,,2,6,2020-12-21_13h11.06.577,Context_Learning_Pilot,2020.1.3,MacIntel,60,,,,,,,2,media/dinb.png,1,Symb,h,TR,0,0,37,0,1,1,1.107742875,6,,,,,,,,,,,,,,,,h,1,1.59068,0,0,0,0,1,,,,,,,,,,,,,,,,,
,,,,,,,,,,,,,,,2,6,2020-12-21_13h11.06.577,Context_Learning_Pilot,2020.1.3,MacIntel,60,,,,,,,,,,,,,,,,,,,,,,,,,,,,,,,,,,,,,,,,,,,,37,0,37,0,1,,,,,,,,,,,,
,,,,,,,,,,,,,,,2,6,2020-12-21_13h11.06.577,Context_Learning_Pilot,2020.1.3,MacIntel,60,,,,,,,1,media/dnnb.png,1,Symb,i,TR,0,0,38,0,1,1,0.882734605,6,,,,,,,,,,,,,,,,i,1,1.544045,0,0,0,0,1,,,,,,,,,,,,,,,,,
,,,,,,,,,,,,,,,2,6,2020-12-21_13h11.06.577,Context_Learning_Pilot,2020.1.3,MacIntel,60,,,,,,,,,,,,,,,,,,,,,,,,,,,,,,,,,,,,,,,,,,,,38,0,38,0,1,,,,,,,,,,,,
,,,,,,,,,,,,,,,2,6,2020-12-21_13h11.06.577,Context_Learning_Pilot,2020.1.3,MacIntel,60,,,,,,,1,media/dnnb.png,1,Symb,i,TR,0,0,39,0,1,1,0.430320932,6,,,,,,,,,,,,,,,,i,1,1.581255,0,0,0,0,1,,,,,,,,,,,,,,,,,
,,,,,,,,,,,,,,,2,6,2020-12-21_13h11.06.577,Context_Learning_Pilot,2020.1.3,MacIntel,60,,,,,,,,,,,,,,,,,,,,,,,,,,,,,,,,,,,,,,,,,,,,39,0,39,0,1,,,,,,,,,,,,
,,,,,,,,,,,,,,,2,6,2020-12-21_13h11.06.577,Context_Learning_Pilot,2020.1.3,MacIntel,60,,,,,,,1,media/dnnb.png,1,Symb,i,TR,0,0,40,0,1,1,0.074937418,6,,,,,,,,,,,,,,,,u,0,1.6579,0,0,0,0,1,,,,,,,,,,,,,,,,,
,,,,,,,,,,,,,,,2,6,2020-12-21_13h11.06.577,Context_Learning_Pilot,2020.1.3,MacIntel,60,,,,,,,,,,,,,,,,,,,,,,,,,,,,,,,,,,,,,,,,,,,,40,0,40,0,1,,,,,,,,,,,,
,,,,,,,,,,,,,,,2,6,2020-12-21_13h11.06.577,Context_Learning_Pilot,2020.1.3,MacIntel,60,,,,,,,1,media/dnnb.png,1,Symb,i,TR,0,0,41,0,1,1,0.997129382,6,,,,,,,,,,,,,,,,i,1,1.658605,0,0,0,0,1,,,,,,,,,,,,,,,,,
,,,,,,,,,,,,,,,2,6,2020-12-21_13h11.06.577,Context_Learning_Pilot,2020.1.3,MacIntel,60,,,,,,,,,,,,,,,,,,,,,,,,,,,,,,,,,,,,,,,,,,,,41,0,41,0,1,,,,,,,,,,,,
,,,,,,,,,,,,,,,2,6,2020-12-21_13h11.06.577,Context_Learning_Pilot,2020.1.3,MacIntel,60,,,,,,,2,media/dinb.png,1,Symb,h,TR,0,0,42,0,1,1,0.894210812,6,,,,,,,,,,,,,,,,h,1,1.619,0,0,0,0,1,,,,,,,,,,,,,,,,,
,,,,,,,,,,,,,,,2,6,2020-12-21_13h11.06.577,Context_Learning_Pilot,2020.1.3,MacIntel,60,,,,,,,,,,,,,,,,,,,,,,,,,,,,,,,,,,,,,,,,,,,,42,0,42,0,1,,,,,,,,,,,,
,,,,,,,,,,,,,,,2,6,2020-12-21_13h11.06.577,Context_Learning_Pilot,2020.1.3,MacIntel,60,,,,,,,0,media/djnb.png,1,Symb,u,TR,0,0,43,0,1,1,0.40925336,6,,,,,,,,,,,,,,,,h,0,1.50773,0,0,0,0,1,,,,,,,,,,,,,,,,,
,,,,,,,,,,,,,,,2,6,2020-12-21_13h11.06.577,Context_Learning_Pilot,2020.1.3,MacIntel,60,,,,,,,,,,,,,,,,,,,,,,,,,,,,,,,,,,,,,,,,,,,,43,0,43,0,1,,,,,,,,,,,,
,,,,,,,,,,,,,,,2,6,2020-12-21_13h11.06.577,Context_Learning_Pilot,2020.1.3,MacIntel,60,,,,,,,3,media/ddnb.png,1,Symb,l,TR,0,0,44,0,1,1,0.702164451,6,,,,,,,,,,,,,,,,l,1,1.514705,0,0,0,0,1,,,,,,,,,,,,,,,,,
,,,,,,,,,,,,,,,2,6,2020-12-21_13h11.06.577,Context_Learning_Pilot,2020.1.3,MacIntel,60,,,,,,,,,,,,,,,,,,,,,,,,,,,,,,,,,,,,,,,,,,,,44,0,44,0,1,,,,,,,,,,,,
,,,,,,,,,,,,,,,2,6,2020-12-21_13h11.06.577,Context_Learning_Pilot,2020.1.3,MacIntel,60,,,,,,,2,media/dinb.png,1,Symb,h,TR,0,0,45,0,1,1,1.202164869,6,,,,,,,,,,,,,,,,h,1,1.59495,0,0,0,0,1,,,,,,,,,,,,,,,,,
,,,,,,,,,,,,,,,2,6,2020-12-21_13h11.06.577,Context_Learning_Pilot,2020.1.3,MacIntel,60,,,,,,,,,,,,,,,,,,,,,,,,,,,,,,,,,,,,,,,,,,,,45,0,45,0,1,,,,,,,,,,,,
,,,,,,,,,,,,,,,2,6,2020-12-21_13h11.06.577,Context_Learning_Pilot,2020.1.3,MacIntel,60,,,,,,,0,media/djnb.png,1,Symb,u,TR,0,0,46,0,1,1,1.230164542,6,,,,,,,,,,,,,,,,u,1,1.56362,0,0,0,0,1,,,,,,,,,,,,,,,,,
,,,,,,,,,,,,,,,2,6,2020-12-21_13h11.06.577,Context_Learning_Pilot,2020.1.3,MacIntel,60,,,,,,,,,,,,,,,,,,,,,,,,,,,,,,,,,,,,,,,,,,,,46,0,46,0,1,,,,,,,,,,,,
,,,,,,,,,,,,,,,2,6,2020-12-21_13h11.06.577,Context_Learning_Pilot,2020.1.3,MacIntel,60,,,,,,,3,media/ddnb.png,1,Symb,l,TR,0,0,47,0,1,1,0.537153556,6,,,,,,,,,,,,,,,,i,0,1.591225,0,0,0,0,1,,,,,,,,,,,,,,,,,
,,,,,,,,,,,,,,,2,6,2020-12-21_13h11.06.577,Context_Learning_Pilot,2020.1.3,MacIntel,60,,,,,,,,,,,,,,,,,,,,,,,,,,,,,,,,,,,,,,,,,,,,47,0,47,0,1,,,,,,,,,,,,
,,,,,,,,,,,,,,,2,6,2020-12-21_13h11.06.577,Context_Learning_Pilot,2020.1.3,MacIntel,60,,,,,,,3,media/ddnb.png,1,Symb,l,TR,0,0,48,0,1,1,0.081785828,6,,,,,,,,,,,,,,,,h,0,1.568205,0,0,0,0,1,,,,,,,,,,,,,,,,,
,,,,,,,,,,,,,,,2,6,2020-12-21_13h11.06.577,Context_Learning_Pilot,2020.1.3,MacIntel,60,,,,,,,,,,,,,,,,,,,,,,,,,,,,,,,,,,,,,,,,,,,,48,0,48,0,1,,,,,,,,,,,,
,,,,,,,,,,,,,,,2,6,2020-12-21_13h11.06.577,Context_Learning_Pilot,2020.1.3,MacIntel,60,,,,,,,0,media/djnb.png,1,Symb,u,TR,0,0,49,0,1,1,1.256711889,6,,,,,,,,,,,,,,,,u,1,1.604,0,0,0,0,1,,,,,,,,,,,,,,,,,
,,,,,,,,,,,,,,,2,6,2020-12-21_13h11.06.577,Context_Learning_Pilot,2020.1.3,MacIntel,60,,,,,,,,,,,,,,,,,,,,,,,,,,,,,,,,,,,,,,,,,,,,49,0,49,0,1,,,,,,,,,,,,
,,,,,,,,,,,,,,,2,6,2020-12-21_13h11.06.577,Context_Learning_Pilot,2020.1.3,MacIntel,60,,,,,,,1,media/dnnb.png,1,Symb,i,TR,0,0,50,0,1,1,0.938051681,6,,,,,,,,,,,,,,,,i,1,1.57936,0,0,0,0,1,,,,,,,,,,,,,,,,,
,,,,,,,,,,,,,,,2,6,2020-12-21_13h11.06.577,Context_Learning_Pilot,2020.1.3,MacIntel,60,,,,,,,,,,,,,,,,,,,,,,,,,,,,,,,,,,,,,,,,,,,,50,0,50,0,1,,,,,,,,,,,,
,,,,,,,,,,,,,,,2,6,2020-12-21_13h11.06.577,Context_Learning_Pilot,2020.1.3,MacIntel,60,,,,,,,1,media/dnnb.png,1,Symb,i,TR,0,0,51,0,1,1,0.707008534,6,,,,,,,,,,,,,,,,i,1,1.48846,0,0,0,0,1,,,,,,,,,,,,,,,,,
,,,,,,,,,,,,,,,2,6,2020-12-21_13h11.06.577,Context_Learning_Pilot,2020.1.3,MacIntel,60,,,,,,,,,,,,,,,,,,,,,,,,,,,,,,,,,,,,,,,,,,,,51,0,51,0,1,,,,,,,,,,,,
,,,,,,,,,,,,,,,2,6,2020-12-21_13h11.06.577,Context_Learning_Pilot,2020.1.3,MacIntel,60,,,,,,,3,media/ddnb.png,1,Symb,l,TR,0,0,52,0,1,1,0.827973573,6,,,,,,,,,,,,,,,,l,1,1.491845,0,0,0,0,1,,,,,,,,,,,,,,,,,
,,,,,,,,,,,,,,,2,6,2020-12-21_13h11.06.577,Context_Learning_Pilot,2020.1.3,MacIntel,60,,,,,,,,,,,,,,,,,,,,,,,,,,,,,,,,,,,,,,,,,,,,52,0,52,0,1,,,,,,,,,,,,
,,,,,,,,,,,,,,,2,6,2020-12-21_13h11.06.577,Context_Learning_Pilot,2020.1.3,MacIntel,60,,,,,,,2,media/dinb.png,1,Symb,h,TR,0,0,53,0,1,1,0.673257174,6,,,,,,,,,,,,,,,,u,0,1.543935,0,0,0,0,1,,,,,,,,,,,,,,,,,
,,,,,,,,,,,,,,,2,6,2020-12-21_13h11.06.577,Context_Learning_Pilot,2020.1.3,MacIntel,60,,,,,,,,,,,,,,,,,,,,,,,,,,,,,,,,,,,,,,,,,,,,53,0,53,0,1,,,,,,,,,,,,
,,,,,,,,,,,,,,,2,6,2020-12-21_13h11.06.577,Context_Learning_Pilot,2020.1.3,MacIntel,60,,,,,,,2,media/dinb.png,1,Symb,h,TR,0,0,54,0,1,1,0.690158298,6,,,,,,,,,,,,,,,,h,1,1.54091,0,0,0,0,1,,,,,,,,,,,,,,,,,
,,,,,,,,,,,,,,,2,6,2020-12-21_13h11.06.577,Context_Learning_Pilot,2020.1.3,MacIntel,60,,,,,,,,,,,,,,,,,,,,,,,,,,,,,,,,,,,,,,,,,,,,54,0,54,0,1,,,,,,,,,,,,
,,,,,,,,,,,,,,,2,6,2020-12-21_13h11.06.577,Context_Learning_Pilot,2020.1.3,MacIntel,60,,,,,,,0,media/djnb.png,1,Symb,u,TR,0,0,55,0,1,1,0.376798908,6,,,,,,,,,,,,,,,,h,0,1.512195,0,0,0,0,1,,,,,,,,,,,,,,,,,
,,,,,,,,,,,,,,,2,6,2020-12-21_13h11.06.577,Context_Learning_Pilot,2020.1.3,MacIntel,60,,,,,,,,,,,,,,,,,,,,,,,,,,,,,,,,,,,,,,,,,,,,55,0,55,0,1,,,,,,,,,,,,
,,,,,,,,,,,,,,,2,6,2020-12-21_13h11.06.577,Context_Learning_Pilot,2020.1.3,MacIntel,60,,,,,,,0,media/djnb.png,1,Symb,u,TR,0,0,56,0,1,1,0.993997388,6,,,,,,,,,,,,,,,,u,1,1.660845,0,0,0,0,1,,,,,,,,,,,,,,,,,
,,,,,,,,,,,,,,,2,6,2020-12-21_13h11.06.577,Context_Learning_Pilot,2020.1.3,MacIntel,60,,,,,,,,,,,,,,,,,,,,,,,,,,,,,,,,,,,,,,,,,,,,56,0,56,0,1,,,,,,,,,,,,
,,,,,,,,,,,,,,,2,6,2020-12-21_13h11.06.577,Context_Learning_Pilot,2020.1.3,MacIntel,60,,,,,,,2,media/dinb.png,1,Symb,h,TR,0,0,57,0,1,1,0.318458389,6,,,,,,,,,,,,,,,,u,0,1.60373,0,0,0,0,1,,,,,,,,,,,,,,,,,
,,,,,,,,,,,,,,,2,6,2020-12-21_13h11.06.577,Context_Learning_Pilot,2020.1.3,MacIntel,60,,,,,,,,,,,,,,,,,,,,,,,,,,,,,,,,,,,,,,,,,,,,57,0,57,0,1,,,,,,,,,,,,
,,,,,,,,,,,,,,,2,6,2020-12-21_13h11.06.577,Context_Learning_Pilot,2020.1.3,MacIntel,60,,,,,,,2,media/dinb.png,1,Symb,h,TR,0,0,58,0,1,1,0.826294017,6,,,,,,,,,,,,,,,,h,1,1.501725,0,0,0,0,1,,,,,,,,,,,,,,,,,
,,,,,,,,,,,,,,,2,6,2020-12-21_13h11.06.577,Context_Learning_Pilot,2020.1.3,MacIntel,60,,,,,,,,,,,,,,,,,,,,,,,,,,,,,,,,,,,,,,,,,,,,58,0,58,0,1,,,,,,,,,,,,
,,,,,,,,,,,,,,,2,6,2020-12-21_13h11.06.577,Context_Learning_Pilot,2020.1.3,MacIntel,60,,,,,,,0,media/djnb.png,1,Symb,u,TR,0,0,59,0,1,1,0.831129636,6,,,,,,,,,,,,,,,,u,1,1.65371,0,0,0,0,1,,,,,,,,,,,,,,,,,
,,,,,,,,,,,,,,,2,6,2020-12-21_13h11.06.577,Context_Learning_Pilot,2020.1.3,MacIntel,60,,,,,,,,,,,,,,,,,,,,,,,,,,,,,,,,,,,,,,,,,,,,59,0,59,0,1,,,,,,,,,,,,
,,,,,,,,,,,,,,,2,6,2020-12-21_13h11.06.577,Context_Learning_Pilot,2020.1.3,MacIntel,60,,,,,,,3,media/ddnb.png,1,Symb,l,TR,0,0,60,0,1,1,0.047014821,6,,,,,,,,,,,,,,,,i,0,1.60096,0,0,0,0,1,,,,,,,,,,,,,,,,,
,,,,,,,,,,,,,,,2,6,2020-12-21_13h11.06.577,Context_Learning_Pilot,2020.1.3,MacIntel,60,,,,,,,,,,,,,,,,,,,,,,,,,,,,,,,,,,,,,,,,,,,,60,0,60,0,1,,,,,,,,,,,,
,,,,,,,,,,,,,,,2,6,2020-12-21_13h11.06.577,Context_Learning_Pilot,2020.1.3,MacIntel,60,,,,,,,1,media/dnnb.png,1,Symb,i,TR,0,0,61,0,1,1,0.667841174,6,,,,,,,,,,,,,,,,i,1,1.617895,0,0,0,0,1,,,,,,,,,,,,,,,,,
,,,,,,,,,,,,,,,2,6,2020-12-21_13h11.06.577,Context_Learning_Pilot,2020.1.3,MacIntel,60,,,,,,,,,,,,,,,,,,,,,,,,,,,,,,,,,,,,,,,,,,,,61,0,61,0,1,,,,,,,,,,,,
,,,,,,,,,,,,,,,2,6,2020-12-21_13h11.06.577,Context_Learning_Pilot,2020.1.3,MacIntel,60,,,,,,,1,media/dnnb.png,1,Symb,i,TR,0,0,62,0,1,1,0.752468653,6,,,,,,,,,,,,,,,,l,0,1.524355,0,0,0,0,1,,,,,,,,,,,,,,,,,
,,,,,,,,,,,,,,,2,6,2020-12-21_13h11.06.577,Context_Learning_Pilot,2020.1.3,MacIntel,60,,,,,,,,,,,,,,,,,,,,,,,,,,,,,,,,,,,,,,,,,,,,62,0,62,0,1,,,,,,,,,,,,
,,,,,,,,,,,,,,,2,6,2020-12-21_13h11.06.577,Context_Learning_Pilot,2020.1.3,MacIntel,60,,,,,,,3,media/ddnb.png,1,Symb,l,TR,0,0,63,0,1,1,0.754920615,6,,,,,,,,,,,,,,,,l,1,1.55946,0,0,0,0,1,,,,,,,,,,,,,,,,,
,,,,,,,,,,,,,,,2,6,2020-12-21_13h11.06.577,Context_Learning_Pilot,2020.1.3,MacIntel,60,,,,,,,,,,,,,,,,,,,,,,,,,,,,,,,,,,,,,,,,,,,,63,0,63,0,1,,,,,,,,,,,,
,,,,,,,,,,,,,,,2,6,2020-12-21_13h11.06.577,Context_Learning_Pilot,2020.1.3,MacIntel,60,,,,,,,3,media/ddnb.png,1,Symb,l,TR,0,0,64,0,1,1,0.100389875,6,,,,,,,,,,,,,,,,i,0,1.534095,0,0,0,0,1,,,,,,,,,,,,,,,,,
,,,,,,,,,,,,,,,2,6,2020-12-21_13h11.06.577,Context_Learning_Pilot,2020.1.3,MacIntel,60,,,,,,,,,,,,,,,,,,,,,,,,,,,,,,,,,,,,,,,,,,,,64,0,64,0,1,,,,,,,,,,,,
,,,,,,,,,,,,,,,2,6,2020-12-21_13h11.06.577,Context_Learning_Pilot,2020.1.3,MacIntel,60,,,,,,,1,media/dnnb.png,1,Symb,i,TR,0,0,65,0,1,1,0.968140334,6,,,,,,,,,,,,,,,,i,1,1.61018,0,0,0,0,1,,,,,,,,,,,,,,,,,
,,,,,,,,,,,,,,,2,6,2020-12-21_13h11.06.577,Context_Learning_Pilot,2020.1.3,MacIntel,60,,,,,,,,,,,,,,,,,,,,,,,,,,,,,,,,,,,,,,,,,,,,65,0,65,0,1,,,,,,,,,,,,
,,,,,,,,,,,,,,,2,6,2020-12-21_13h11.06.577,Context_Learning_Pilot,2020.1.3,MacIntel,60,,,,,,,3,media/ddnb.png,1,Symb,l,TR,0,0,66,0,1,1,0.588678724,6,,,,,,,,,,,,,,,,u,0,1.4056,0,0,0,0,1,,,,,,,,,,,,,,,,,
,,,,,,,,,,,,,,,2,6,2020-12-21_13h11.06.577,Context_Learning_Pilot,2020.1.3,MacIntel,60,,,,,,,,,,,,,,,,,,,,,,,,,,,,,,,,,,,,,,,,,,,,66,0,66,0,1,,,,,,,,,,,,
,,,,,,,,,,,,,,,2,6,2020-12-21_13h11.06.577,Context_Learning_Pilot,2020.1.3,MacIntel,60,,,,,,,2,media/dinb.png,1,Symb,h,TR,0,0,67,0,1,1,0.125617703,6,,,,,,,,,,,,,,,,l,0,1.604465,0,0,0,0,1,,,,,,,,,,,,,,,,,
,,,,,,,,,,,,,,,2,6,2020-12-21_13h11.06.577,Context_Learning_Pilot,2020.1.3,MacIntel,60,,,,,,,,,,,,,,,,,,,,,,,,,,,,,,,,,,,,,,,,,,,,67,0,67,0,1,,,,,,,,,,,,
,,,,,,,,,,,,,,,2,6,2020-12-21_13h11.06.577,Context_Learning_Pilot,2020.1.3,MacIntel,60,,,,,,,0,media/djnb.png,1,Symb,u,TR,0,0,68,0,1,1,0.290994233,6,,,,,,,,,,,,,,,,h,0,1.644965,0,0,0,0,1,,,,,,,,,,,,,,,,,
,,,,,,,,,,,,,,,2,6,2020-12-21_13h11.06.577,Context_Learning_Pilot,2020.1.3,MacIntel,60,,,,,,,,,,,,,,,,,,,,,,,,,,,,,,,,,,,,,,,,,,,,68,0,68,0,1,,,,,,,,,,,,
,,,,,,,,,,,,,,,2,6,2020-12-21_13h11.06.577,Context_Learning_Pilot,2020.1.3,MacIntel,60,,,,,,,1,media/dnnb.png,1,Symb,i,TR,0,0,69,0,1,1,0.820518461,6,,,,,,,,,,,,,,,,l,0,1.60562,0,0,0,0,1,,,,,,,,,,,,,,,,,
,,,,,,,,,,,,,,,2,6,2020-12-21_13h11.06.577,Context_Learning_Pilot,2020.1.3,MacIntel,60,,,,,,,,,,,,,,,,,,,,,,,,,,,,,,,,,,,,,,,,,,,,69,0,69,0,1,,,,,,,,,,,,
,,,,,,,,,,,,,,,2,6,2020-12-21_13h11.06.577,Context_Learning_Pilot,2020.1.3,MacIntel,60,,,,,,,2,media/dinb.png,1,Symb,h,TR,0,0,70,0,1,1,0.85006991,6,,,,,,,,,,,,,,,,u,0,1.65278,0,0,0,0,1,,,,,,,,,,,,,,,,,
,,,,,,,,,,,,,,,2,6,2020-12-21_13h11.06.577,Context_Learning_Pilot,2020.1.3,MacIntel,60,,,,,,,,,,,,,,,,,,,,,,,,,,,,,,,,,,,,,,,,,,,,70,0,70,0,1,,,,,,,,,,,,
,,,,,,,,,,,,,,,2,6,2020-12-21_13h11.06.577,Context_Learning_Pilot,2020.1.3,MacIntel,60,,,,,,,0,media/djnb.png,1,Symb,u,TR,0,0,71,0,1,1,0.524602276,6,,,,,,,,,,,,,,,,u,1,1.74694,0,0,0,0,1,,,,,,,,,,,,,,,,,
,,,,,,,,,,,,,,,2,6,2020-12-21_13h11.06.577,Context_Learning_Pilot,2020.1.3,MacIntel,60,,,,,,,,,,,,,,,,,,,,,,,,,,,,,,,,,,,,,,,,,,,,71,0,71,0,1,,,,,,,,,,,,
,,,,,,,,,,,,,,,2,6,2020-12-21_13h11.06.577,Context_Learning_Pilot,2020.1.3,MacIntel,60,,,,,,,0,media/djnb.png,1,Symb,u,TR,0,0,72,0,1,1,0.561903412,6,,,,,,,,,,,,,,,,u,1,1.66105,0,0,0,0,1,,,,,,,,,,,,,,,,,
,,,,,,,,,,,,,,,2,6,2020-12-21_13h11.06.577,Context_Learning_Pilot,2020.1.3,MacIntel,60,,,,,,,,,,,,,,,,,,,,,,,,,,,,,,,,,,,,,,,,,,,,72,0,72,0,1,,,,,,,,,,,,
,,,,,,,,,,,,,,,2,6,2020-12-21_13h11.06.577,Context_Learning_Pilot,2020.1.3,MacIntel,60,,,,,,,2,media/dinb.png,1,Symb,h,TR,0,0,73,0,1,1,0.441194076,6,,,,,,,,,,,,,,,,u,0,1.49764,0,0,0,0,1,,,,,,,,,,,,,,,,,
,,,,,,,,,,,,,,,2,6,2020-12-21_13h11.06.577,Context_Learning_Pilot,2020.1.3,MacIntel,60,,,,,,,,,,,,,,,,,,,,,,,,,,,,,,,,,,,,,,,,,,,,73,0,73,0,1,,,,,,,,,,,,
,,,,,,,,,,,,,,,2,6,2020-12-21_13h11.06.577,Context_Learning_Pilot,2020.1.3,MacIntel,60,,,,,,,1,media/dnnb.png,1,Symb,i,TR,0,0,74,0,1,1,0.371626592,6,,,,,,,,,,,,,,,,i,1,1.70657,0,0,0,0,1,,,,,,,,,,,,,,,,,
,,,,,,,,,,,,,,,2,6,2020-12-21_13h11.06.577,Context_Learning_Pilot,2020.1.3,MacIntel,60,,,,,,,,,,,,,,,,,,,,,,,,,,,,,,,,,,,,,,,,,,,,74,0,74,0,1,,,,,,,,,,,,
,,,,,,,,,,,,,,,2,6,2020-12-21_13h11.06.577,Context_Learning_Pilot,2020.1.3,MacIntel,60,,,,,,,1,media/dnnb.png,1,Symb,i,TR,0,0,75,0,1,1,0.717642399,6,,,,,,,,,,,,,,,,i,1,1.5574,0,0,0,0,1,,,,,,,,,,,,,,,,,
,,,,,,,,,,,,,,,2,6,2020-12-21_13h11.06.577,Context_Learning_Pilot,2020.1.3,MacIntel,60,,,,,,,,,,,,,,,,,,,,,,,,,,,,,,,,,,,,,,,,,,,,75,0,75,0,1,,,,,,,,,,,,
,,,,,,,,,,,,,,,2,6,2020-12-21_13h11.06.577,Context_Learning_Pilot,2020.1.3,MacIntel,60,,,,,,,2,media/dinb.png,1,Symb,h,TR,0,0,76,0,1,1,0.770909517,6,,,,,,,,,,,,,,,,h,1,1.619955,0,0,0,0,1,,,,,,,,,,,,,,,,,
,,,,,,,,,,,,,,,2,6,2020-12-21_13h11.06.577,Context_Learning_Pilot,2020.1.3,MacIntel,60,,,,,,,,,,,,,,,,,,,,,,,,,,,,,,,,,,,,,,,,,,,,76,0,76,0,1,,,,,,,,,,,,
,,,,,,,,,,,,,,,2,6,2020-12-21_13h11.06.577,Context_Learning_Pilot,2020.1.3,MacIntel,60,,,,,,,0,media/djnb.png,1,Symb,u,TR,0,0,77,0,1,1,0.894695203,6,,,,,,,,,,,,,,,,u,1,1.57715,0,0,0,0,1,,,,,,,,,,,,,,,,,
,,,,,,,,,,,,,,,2,6,2020-12-21_13h11.06.577,Context_Learning_Pilot,2020.1.3,MacIntel,60,,,,,,,,,,,,,,,,,,,,,,,,,,,,,,,,,,,,,,,,,,,,77,0,77,0,1,,,,,,,,,,,,
,,,,,,,,,,,,,,,2,6,2020-12-21_13h11.06.577,Context_Learning_Pilot,2020.1.3,MacIntel,60,,,,,,,3,media/ddnb.png,1,Symb,l,TR,0,0,78,0,1,1,0.359397706,6,,,,,,,,,,,,,,,,u,0,1.40488,0,0,0,0,1,,,,,,,,,,,,,,,,,
,,,,,,,,,,,,,,,2,6,2020-12-21_13h11.06.577,Context_Learning_Pilot,2020.1.3,MacIntel,60,,,,,,,,,,,,,,,,,,,,,,,,,,,,,,,,,,,,,,,,,,,,78,0,78,0,1,,,,,,,,,,,,
,,,,,,,,,,,,,,,2,6,2020-12-21_13h11.06.577,Context_Learning_Pilot,2020.1.3,MacIntel,60,,,,,,,3,media/ddnb.png,1,Symb,l,TR,0,0,79,0,1,1,0.344320625,6,,,,,,,,,,,,,,,,i,0,1.56165,0,0,0,0,1,,,,,,,,,,,,,,,,,
,,,,,,,,,,,,,,,2,6,2020-12-21_13h11.06.577,Context_Learning_Pilot,2020.1.3,MacIntel,60,,,,,,,,,,,,,,,,,,,,,,,,,,,,,,,,,,,,,,,,,,,,79,0,79,0,1,,,,,,,,,,,,
,,,,,,,,,,,,,,,2,6,2020-12-21_13h11.06.577,Context_Learning_Pilot,2020.1.3,MacIntel,60,,,,,,,0,media/djnb.png,1,Symb,u,TR,0,0,80,0,1,1,1.01579678,6,,,,,,,,,,,,,,,,u,1,1.49229,0,0,0,0,1,,,,,,,,,,,,,,,,,
,,,,,,,,,,,,,,,2,6,2020-12-21_13h11.06.577,Context_Learning_Pilot,2020.1.3,MacIntel,60,,,,,,,,,,,,,,,,,,,,,,,,,,,,,,,,,,,,,,,,,,,,80,0,80,0,1,,,,,,,,,,,,
,,,,,,,,,,,,,,,2,6,2020-12-21_13h11.06.577,Context_Learning_Pilot,2020.1.3,MacIntel,60,,,,,,,3,media/ddnb.png,1,Symb,l,TR,0,0,81,0,1,1,0.360499077,6,,,,,,,,,,,,,,,,l,1,1.574405,0,0,0,0,1,,,,,,,,,,,,,,,,,
,,,,,,,,,,,,,,,2,6,2020-12-21_13h11.06.577,Context_Learning_Pilot,2020.1.3,MacIntel,60,,,,,,,,,,,,,,,,,,,,,,,,,,,,,,,,,,,,,,,,,,,,81,0,81,0,1,,,,,,,,,,,,
,,,,,,,,,,,,,,,2,6,2020-12-21_13h11.06.577,Context_Learning_Pilot,2020.1.3,MacIntel,60,,,,,,,0,media/djnb.png,1,Symb,u,TR,0,0,82,0,1,1,0.453253516,6,,,,,,,,,,,,,,,,i,0,1.3971,0,0,0,0,1,,,,,,,,,,,,,,,,,
,,,,,,,,,,,,,,,2,6,2020-12-21_13h11.06.577,Context_Learning_Pilot,2020.1.3,MacIntel,60,,,,,,,,,,,,,,,,,,,,,,,,,,,,,,,,,,,,,,,,,,,,82,0,82,0,1,,,,,,,,,,,,
,,,,,,,,,,,,,,,2,6,2020-12-21_13h11.06.577,Context_Learning_Pilot,2020.1.3,MacIntel,60,,,,,,,2,media/dinb.png,1,Symb,h,TR,0,0,83,0,1,1,0.713935229,6,,,,,,,,,,,,,,,,h,1,1.427085,0,0,0,0,1,,,,,,,,,,,,,,,,,
,,,,,,,,,,,,,,,2,6,2020-12-21_13h11.06.577,Context_Learning_Pilot,2020.1.3,MacIntel,60,,,,,,,,,,,,,,,,,,,,,,,,,,,,,,,,,,,,,,,,,,,,83,0,83,0,1,,,,,,,,,,,,
,,,,,,,,,,,,,,,2,6,2020-12-21_13h11.06.577,Context_Learning_Pilot,2020.1.3,MacIntel,60,,,,,,,1,media/dnnb.png,1,Symb,i,TR,0,0,84,0,1,1,0.341690918,6,,,,,,,,,,,,,,,,u,0,1.583565,0,0,0,0,1,,,,,,,,,,,,,,,,,
,,,,,,,,,,,,,,,2,6,2020-12-21_13h11.06.577,Context_Learning_Pilot,2020.1.3,MacIntel,60,,,,,,,,,,,,,,,,,,,,,,,,,,,,,,,,,,,,,,,,,,,,84,0,84,0,1,,,,,,,,,,,,
,,,,,,,,,,,,,,,2,6,2020-12-21_13h11.06.577,Context_Learning_Pilot,2020.1.3,MacIntel,60,,,,,,,1,media/dnnb.png,1,Symb,i,TR,0,0,85,0,1,1,0.800345688,6,,,,,,,,,,,,,,,,i,1,1.61756,0,0,0,0,1,,,,,,,,,,,,,,,,,
,,,,,,,,,,,,,,,2,6,2020-12-21_13h11.06.577,Context_Learning_Pilot,2020.1.3,MacIntel,60,,,,,,,,,,,,,,,,,,,,,,,,,,,,,,,,,,,,,,,,,,,,85,0,85,0,1,,,,,,,,,,,,
,,,,,,,,,,,,,,,2,6,2020-12-21_13h11.06.577,Context_Learning_Pilot,2020.1.3,MacIntel,60,,,,,,,2,media/dinb.png,1,Symb,h,TR,0,0,86,0,1,1,0.091830086,6,,,,,,,,,,,,,,,,i,0,1.553805,0,0,0,0,1,,,,,,,,,,,,,,,,,
,,,,,,,,,,,,,,,2,6,2020-12-21_13h11.06.577,Context_Learning_Pilot,2020.1.3,MacIntel,60,,,,,,,,,,,,,,,,,,,,,,,,,,,,,,,,,,,,,,,,,,,,86,0,86,0,1,,,,,,,,,,,,
,,,,,,,,,,,,,,,2,6,2020-12-21_13h11.06.577,Context_Learning_Pilot,2020.1.3,MacIntel,60,,,,,,,3,media/ddnb.png,1,Symb,l,TR,0,0,87,0,1,1,0.83686585,6,,,,,,,,,,,,,,,,i,0,1.602965,0,0,0,0,1,,,,,,,,,,,,,,,,,
,,,,,,,,,,,,,,,2,6,2020-12-21_13h11.06.577,Context_Learning_Pilot,2020.1.3,MacIntel,60,,,,,,,,,,,,,,,,,,,,,,,,,,,,,,,,,,,,,,,,,,,,87,0,87,0,1,,,,,,,,,,,,
,,,,,,,,,,,,,,,2,6,2020-12-21_13h11.06.577,Context_Learning_Pilot,2020.1.3,MacIntel,60,,,,,,,1,media/dnnb.png,1,Symb,i,TR,0,0,88,0,1,1,0.252091366,6,,,,,,,,,,,,,,,,u,0,1.57825,0,0,0,0,1,,,,,,,,,,,,,,,,,
,,,,,,,,,,,,,,,2,6,2020-12-21_13h11.06.577,Context_Learning_Pilot,2020.1.3,MacIntel,60,,,,,,,,,,,,,,,,,,,,,,,,,,,,,,,,,,,,,,,,,,,,88,0,88,0,1,,,,,,,,,,,,
,,,,,,,,,,,,,,,2,6,2020-12-21_13h11.06.577,Context_Learning_Pilot,2020.1.3,MacIntel,60,,,,,,,2,media/dinb.png,1,Symb,h,TR,0,0,89,0,1,1,0.215468434,6,,,,,,,,,,,,,,,,h,1,1.61744,0,0,0,0,1,,,,,,,,,,,,,,,,,
,,,,,,,,,,,,,,,2,6,2020-12-21_13h11.06.577,Context_Learning_Pilot,2020.1.3,MacIntel,60,,,,,,,,,,,,,,,,,,,,,,,,,,,,,,,,,,,,,,,,,,,,89,0,89,0,1,,,,,,,,,,,,
,,,,,,,,,,,,,,,2,6,2020-12-21_13h11.06.577,Context_Learning_Pilot,2020.1.3,MacIntel,60,,,,,,,1,media/dnnb.png,1,Symb,i,TR,0,0,90,0,1,1,0.512306698,6,,,,,,,,,,,,,,,,i,1,1.37398,0,0,0,0,1,,,,,,,,,,,,,,,,,
,,,,,,,,,,,,,,,2,6,2020-12-21_13h11.06.577,Context_Learning_Pilot,2020.1.3,MacIntel,60,,,,,,,,,,,,,,,,,,,,,,,,,,,,,,,,,,,,,,,,,,,,90,0,90,0,1,,,,,,,,,,,,
,,,,,,,,,,,,,,,2,6,2020-12-21_13h11.06.577,Context_Learning_Pilot,2020.1.3,MacIntel,60,,,,,,,0,media/djnb.png,1,Symb,u,TR,0,0,91,0,1,1,0.756238505,6,,,,,,,,,,,,,,,,u,1,1.51785,0,0,0,0,1,,,,,,,,,,,,,,,,,
,,,,,,,,,,,,,,,2,6,2020-12-21_13h11.06.577,Context_Learning_Pilot,2020.1.3,MacIntel,60,,,,,,,,,,,,,,,,,,,,,,,,,,,,,,,,,,,,,,,,,,,,91,0,91,0,1,,,,,,,,,,,,
,,,,,,,,,,,,,,,2,6,2020-12-21_13h11.06.577,Context_Learning_Pilot,2020.1.3,MacIntel,60,,,,,,,3,media/ddnb.png,1,Symb,l,TR,0,0,92,0,1,1,1.248264207,6,,,,,,,,,,,,,,,,l,1,1.626855,0,0,0,0,1,,,,,,,,,,,,,,,,,
,,,,,,,,,,,,,,,2,6,2020-12-21_13h11.06.577,Context_Learning_Pilot,2020.1.3,MacIntel,60,,,,,,,,,,,,,,,,,,,,,,,,,,,,,,,,,,,,,,,,,,,,92,0,92,0,1,,,,,,,,,,,,
,,,,,,,,,,,,,,,2,6,2020-12-21_13h11.06.577,Context_Learning_Pilot,2020.1.3,MacIntel,60,,,,,,,2,media/dinb.png,1,Symb,h,TR,0,0,93,0,1,1,0.156236455,6,,,,,,,,,,,,,,,,l,0,1.618585,0,0,0,0,1,,,,,,,,,,,,,,,,,
,,,,,,,,,,,,,,,2,6,2020-12-21_13h11.06.577,Context_Learning_Pilot,2020.1.3,MacIntel,60,,,,,,,,,,,,,,,,,,,,,,,,,,,,,,,,,,,,,,,,,,,,93,0,93,0,1,,,,,,,,,,,,
,,,,,,,,,,,,,,,2,6,2020-12-21_13h11.06.577,Context_Learning_Pilot,2020.1.3,MacIntel,60,,,,,,,3,media/ddnb.png,1,Symb,l,TR,0,0,94,0,1,1,1.168894189,6,,,,,,,,,,,,,,,,l,1,1.63907,0,0,0,0,1,,,,,,,,,,,,,,,,,
,,,,,,,,,,,,,,,2,6,2020-12-21_13h11.06.577,Context_Learning_Pilot,2020.1.3,MacIntel,60,,,,,,,,,,,,,,,,,,,,,,,,,,,,,,,,,,,,,,,,,,,,94,0,94,0,1,,,,,,,,,,,,
,,,,,,,,,,,,,,,2,6,2020-12-21_13h11.06.577,Context_Learning_Pilot,2020.1.3,MacIntel,60,,,,,,,0,media/djnb.png,1,Symb,u,TR,0,0,95,0,1,1,0.101578858,6,,,,,,,,,,,,,,,,i,0,1.603315,0,0,0,0,1,,,,,,,,,,,,,,,,,
,,,,,,,,,,,,,,,2,6,2020-12-21_13h11.06.577,Context_Learning_Pilot,2020.1.3,MacIntel,60,,,,,,,,,,,,,,,,,,,,,,,,,,,,,,,,,,,,,,,,,,,,,,,,,0,0,0,0,1,,,,,,,
,,,,,,,,,,,,,,,2,6,2020-12-21_13h11.06.577,Context_Learning_Pilot,2020.1.3,MacIntel,60,,,,,h,3.224185,1,media/dnnb.png,1,Symb,i,TR,0,0,0,0,1,2,0.988276706,6,,,,,,,,,,,,,,,,i,1,1.650525,0,0,0,0,1,,,,,,,,,,,,,,,,,
,,,,,,,,,,,,,,,2,6,2020-12-21_13h11.06.577,Context_Learning_Pilot,2020.1.3,MacIntel,60,,,,,,,,,,,,,,,,,,,,,,,,,,,,,,,,,,,,,,,,,,,,0,0,0,0,1,,,,,,,,,,,,
,,,,,,,,,,,,,,,2,6,2020-12-21_13h11.06.577,Context_Learning_Pilot,2020.1.3,MacIntel,60,,,,,,,2,media/dinb.png,1,Symb,h,TR,0,0,1,0,1,2,0.496626268,6,,,,,,,,,,,,,,,,h,1,1.63902,0,0,0,0,1,,,,,,,,,,,,,,,,,
,,,,,,,,,,,,,,,2,6,2020-12-21_13h11.06.577,Context_Learning_Pilot,2020.1.3,MacIntel,60,,,,,,,,,,,,,,,,,,,,,,,,,,,,,,,,,,,,,,,,,,,,1,0,1,0,1,,,,,,,,,,,,
,,,,,,,,,,,,,,,2,6,2020-12-21_13h11.06.577,Context_Learning_Pilot,2020.1.3,MacIntel,60,,,,,,,2,media/dinb.png,1,Symb,h,TR,0,0,2,0,1,2,0.345591227,6,,,,,,,,,,,,,,,,h,1,1.690855,0,0,0,0,1,,,,,,,,,,,,,,,,,
,,,,,,,,,,,,,,,2,6,2020-12-21_13h11.06.577,Context_Learning_Pilot,2020.1.3,MacIntel,60,,,,,,,,,,,,,,,,,,,,,,,,,,,,,,,,,,,,,,,,,,,,2,0,2,0,1,,,,,,,,,,,,
,,,,,,,,,,,,,,,2,6,2020-12-21_13h11.06.577,Context_Learning_Pilot,2020.1.3,MacIntel,60,,,,,,,3,media/ddnb.png,1,Symb,l,TR,0,0,3,0,1,2,0.285381752,6,,,,,,,,,,,,,,,,u,0,1.66428,0,0,0,0,1,,,,,,,,,,,,,,,,,
,,,,,,,,,,,,,,,2,6,2020-12-21_13h11.06.577,Context_Learning_Pilot,2020.1.3,MacIntel,60,,,,,,,,,,,,,,,,,,,,,,,,,,,,,,,,,,,,,,,,,,,,3,0,3,0,1,,,,,,,,,,,,
,,,,,,,,,,,,,,,2,6,2020-12-21_13h11.06.577,Context_Learning_Pilot,2020.1.3,MacIntel,60,,,,,,,3,media/ddnb.png,1,Symb,l,TR,0,0,4,0,1,2,1.176817091,6,,,,,,,,,,,,,,,,l,1,1.673325,0,0,0,0,1,,,,,,,,,,,,,,,,,
,,,,,,,,,,,,,,,2,6,2020-12-21_13h11.06.577,Context_Learning_Pilot,2020.1.3,MacIntel,60,,,,,,,,,,,,,,,,,,,,,,,,,,,,,,,,,,,,,,,,,,,,4,0,4,0,1,,,,,,,,,,,,
,,,,,,,,,,,,,,,2,6,2020-12-21_13h11.06.577,Context_Learning_Pilot,2020.1.3,MacIntel,60,,,,,,,0,media/djnb.png,1,Symb,u,TR,0,0,5,0,1,2,0.304710778,6,,,,,,,,,,,,,,,,i,0,1.600575,0,0,0,0,1,,,,,,,,,,,,,,,,,
,,,,,,,,,,,,,,,2,6,2020-12-21_13h11.06.577,Context_Learning_Pilot,2020.1.3,MacIntel,60,,,,,,,,,,,,,,,,,,,,,,,,,,,,,,,,,,,,,,,,,,,,5,0,5,0,1,,,,,,,,,,,,
,,,,,,,,,,,,,,,2,6,2020-12-21_13h11.06.577,Context_Learning_Pilot,2020.1.3,MacIntel,60,,,,,,,1,media/dnnb.png,1,Symb,i,TR,0,0,6,0,1,2,0.946367634,6,,,,,,,,,,,,,,,,i,1,1.58261,0,0,0,0,1,,,,,,,,,,,,,,,,,
,,,,,,,,,,,,,,,2,6,2020-12-21_13h11.06.577,Context_Learning_Pilot,2020.1.3,MacIntel,60,,,,,,,,,,,,,,,,,,,,,,,,,,,,,,,,,,,,,,,,,,,,6,0,6,0,1,,,,,,,,,,,,
,,,,,,,,,,,,,,,2,6,2020-12-21_13h11.06.577,Context_Learning_Pilot,2020.1.3,MacIntel,60,,,,,,,0,media/djnb.png,1,Symb,u,TR,0,0,7,0,1,2,0.643309642,6,,,,,,,,,,,,,,,,u,1,1.56987,0,0,0,0,1,,,,,,,,,,,,,,,,,
,,,,,,,,,,,,,,,2,6,2020-12-21_13h11.06.577,Context_Learning_Pilot,2020.1.3,MacIntel,60,,,,,,,,,,,,,,,,,,,,,,,,,,,,,,,,,,,,,,,,,,,,7,0,7,0,1,,,,,,,,,,,,
,,,,,,,,,,,,,,,2,6,2020-12-21_13h11.06.577,Context_Learning_Pilot,2020.1.3,MacIntel,60,,,,,,,2,media/dinb.png,1,Symb,h,TR,0,0,8,0,1,2,0.490192303,6,,,,,,,,,,,,,,,,l,0,1.611375,0,0,0,0,1,,,,,,,,,,,,,,,,,
,,,,,,,,,,,,,,,2,6,2020-12-21_13h11.06.577,Context_Learning_Pilot,2020.1.3,MacIntel,60,,,,,,,,,,,,,,,,,,,,,,,,,,,,,,,,,,,,,,,,,,,,8,0,8,0,1,,,,,,,,,,,,
,,,,,,,,,,,,,,,2,6,2020-12-21_13h11.06.577,Context_Learning_Pilot,2020.1.3,MacIntel,60,,,,,,,1,media/dnnb.png,1,Symb,i,TR,0,0,9,0,1,2,0.084499862,6,,,,,,,,,,,,,,,,i,1,1.551925,0,0,0,0,1,,,,,,,,,,,,,,,,,
,,,,,,,,,,,,,,,2,6,2020-12-21_13h11.06.577,Context_Learning_Pilot,2020.1.3,MacIntel,60,,,,,,,,,,,,,,,,,,,,,,,,,,,,,,,,,,,,,,,,,,,,9,0,9,0,1,,,,,,,,,,,,
,,,,,,,,,,,,,,,2,6,2020-12-21_13h11.06.577,Context_Learning_Pilot,2020.1.3,MacIntel,60,,,,,,,2,media/dinb.png,1,Symb,h,TR,0,0,10,0,1,2,0.059576394,6,,,,,,,,,,,,,,,,h,1,1.56524,0,0,0,0,1,,,,,,,,,,,,,,,,,
,,,,,,,,,,,,,,,2,6,2020-12-21_13h11.06.577,Context_Learning_Pilot,2020.1.3,MacIntel,60,,,,,,,,,,,,,,,,,,,,,,,,,,,,,,,,,,,,,,,,,,,,10,0,10,0,1,,,,,,,,,,,,
,,,,,,,,,,,,,,,2,6,2020-12-21_13h11.06.577,Context_Learning_Pilot,2020.1.3,MacIntel,60,,,,,,,0,media/djnb.png,1,Symb,u,TR,0,0,11,0,1,2,0.610331978,6,,,,,,,,,,,,,,,,u,1,1.635035,0,0,0,0,1,,,,,,,,,,,,,,,,,
,,,,,,,,,,,,,,,2,6,2020-12-21_13h11.06.577,Context_Learning_Pilot,2020.1.3,MacIntel,60,,,,,,,,,,,,,,,,,,,,,,,,,,,,,,,,,,,,,,,,,,,,11,0,11,0,1,,,,,,,,,,,,
,,,,,,,,,,,,,,,2,6,2020-12-21_13h11.06.577,Context_Learning_Pilot,2020.1.3,MacIntel,60,,,,,,,1,media/dnnb.png,1,Symb,i,TR,0,0,12,0,1,2,0.616523223,6,,,,,,,,,,,,,,,,i,1,1.531925,0,0,0,0,1,,,,,,,,,,,,,,,,,
,,,,,,,,,,,,,,,2,6,2020-12-21_13h11.06.577,Context_Learning_Pilot,2020.1.3,MacIntel,60,,,,,,,,,,,,,,,,,,,,,,,,,,,,,,,,,,,,,,,,,,,,12,0,12,0,1,,,,,,,,,,,,
,,,,,,,,,,,,,,,2,6,2020-12-21_13h11.06.577,Context_Learning_Pilot,2020.1.3,MacIntel,60,,,,,,,0,media/djnb.png,1,Symb,u,TR,0,0,13,0,1,2,1.011134503,6,,,,,,,,,,,,,,,,u,1,1.656005,0,0,0,0,1,,,,,,,,,,,,,,,,,
,,,,,,,,,,,,,,,2,6,2020-12-21_13h11.06.577,Context_Learning_Pilot,2020.1.3,MacIntel,60,,,,,,,,,,,,,,,,,,,,,,,,,,,,,,,,,,,,,,,,,,,,13,0,13,0,1,,,,,,,,,,,,
,,,,,,,,,,,,,,,2,6,2020-12-21_13h11.06.577,Context_Learning_Pilot,2020.1.3,MacIntel,60,,,,,,,3,media/ddnb.png,1,Symb,l,TR,0,0,14,0,1,2,0.996753455,6,,,,,,,,,,,,,,,,l,1,1.571895,0,0,0,0,1,,,,,,,,,,,,,,,,,
,,,,,,,,,,,,,,,2,6,2020-12-21_13h11.06.577,Context_Learning_Pilot,2020.1.3,MacIntel,60,,,,,,,,,,,,,,,,,,,,,,,,,,,,,,,,,,,,,,,,,,,,14,0,14,0,1,,,,,,,,,,,,
,,,,,,,,,,,,,,,2,6,2020-12-21_13h11.06.577,Context_Learning_Pilot,2020.1.3,MacIntel,60,,,,,,,3,media/ddnb.png,1,Symb,l,TR,0,0,15,0,1,2,1.128586654,6,,,,,,,,,,,,,,,,i,0,1.50261,0,0,0,0,1,,,,,,,,,,,,,,,,,
,,,,,,,,,,,,,,,2,6,2020-12-21_13h11.06.577,Context_Learning_Pilot,2020.1.3,MacIntel,60,,,,,,,,,,,,,,,,,,,,,,,,,,,,,,,,,,,,,,,,,,,,15,0,15,0,1,,,,,,,,,,,,
,,,,,,,,,,,,,,,2,6,2020-12-21_13h11.06.577,Context_Learning_Pilot,2020.1.3,MacIntel,60,,,,,,,0,media/djnb.png,1,Symb,u,TR,0,0,16,0,1,2,0.265964441,6,,,,,,,,,,,,,,,,,0,,,,,,,,,,,,,,,,,u,0.0955,0,0,0,0,1
,,,,,,,,,,,,,,,2,6,2020-12-21_13h11.06.577,Context_Learning_Pilot,2020.1.3,MacIntel,60,,,,,,,,,,,,,,,,,,,,,,,,,,,,,,,,,,,,,,,,,,,,16,0,16,0,1,,,,,,,,,,,,
,,,,,,,,,,,,,,,2,6,2020-12-21_13h11.06.577,Context_Learning_Pilot,2020.1.3,MacIntel,60,,,,,,,3,media/ddnb.png,1,Symb,l,TR,0,0,17,0,1,2,0.434609311,6,,,,,,,,,,,,,,,,i,0,1.685535,0,0,0,0,1,,,,,,,,,,,,,,,,,
,,,,,,,,,,,,,,,2,6,2020-12-21_13h11.06.577,Context_Learning_Pilot,2020.1.3,MacIntel,60,,,,,,,,,,,,,,,,,,,,,,,,,,,,,,,,,,,,,,,,,,,,17,0,17,0,1,,,,,,,,,,,,
,,,,,,,,,,,,,,,2,6,2020-12-21_13h11.06.577,Context_Learning_Pilot,2020.1.3,MacIntel,60,,,,,,,2,media/dinb.png,1,Symb,h,TR,0,0,18,0,1,2,0.846099808,6,,,,,,,,,,,,,,,,h,1,1.54699,0,0,0,0,1,,,,,,,,,,,,,,,,,
,,,,,,,,,,,,,,,2,6,2020-12-21_13h11.06.577,Context_Learning_Pilot,2020.1.3,MacIntel,60,,,,,,,,,,,,,,,,,,,,,,,,,,,,,,,,,,,,,,,,,,,,18,0,18,0,1,,,,,,,,,,,,
,,,,,,,,,,,,,,,2,6,2020-12-21_13h11.06.577,Context_Learning_Pilot,2020.1.3,MacIntel,60,,,,,,,3,media/ddnb.png,1,Symb,l,TR,0,0,19,0,1,2,0.796647711,6,,,,,,,,,,,,,,,,l,1,1.587985,0,0,0,0,1,,,,,,,,,,,,,,,,,
,,,,,,,,,,,,,,,2,6,2020-12-21_13h11.06.577,Context_Learning_Pilot,2020.1.3,MacIntel,60,,,,,,,,,,,,,,,,,,,,,,,,,,,,,,,,,,,,,,,,,,,,19,0,19,0,1,,,,,,,,,,,,
,,,,,,,,,,,,,,,2,6,2020-12-21_13h11.06.577,Context_Learning_Pilot,2020.1.3,MacIntel,60,,,,,,,1,media/dnnb.png,1,Symb,i,TR,0,0,20,0,1,2,0.878770008,6,,,,,,,,,,,,,,,,i,1,1.616535,0,0,0,0,1,,,,,,,,,,,,,,,,,
,,,,,,,,,,,,,,,2,6,2020-12-21_13h11.06.577,Context_Learning_Pilot,2020.1.3,MacIntel,60,,,,,,,,,,,,,,,,,,,,,,,,,,,,,,,,,,,,,,,,,,,,20,0,20,0,1,,,,,,,,,,,,
,,,,,,,,,,,,,,,2,6,2020-12-21_13h11.06.577,Context_Learning_Pilot,2020.1.3,MacIntel,60,,,,,,,2,media/dinb.png,1,Symb,h,TR,0,0,21,0,1,2,0.945580627,6,,,,,,,,,,,,,,,,u,0,1.602985,0,0,0,0,1,,,,,,,,,,,,,,,,,
,,,,,,,,,,,,,,,2,6,2020-12-21_13h11.06.577,Context_Learning_Pilot,2020.1.3,MacIntel,60,,,,,,,,,,,,,,,,,,,,,,,,,,,,,,,,,,,,,,,,,,,,21,0,21,0,1,,,,,,,,,,,,
,,,,,,,,,,,,,,,2,6,2020-12-21_13h11.06.577,Context_Learning_Pilot,2020.1.3,MacIntel,60,,,,,,,0,media/djnb.png,1,Symb,u,TR,0,0,22,0,1,2,0.041107584,6,,,,,,,,,,,,,,,,h,0,1.64794,0,0,0,0,1,,,,,,,,,,,,,,,,,
,,,,,,,,,,,,,,,2,6,2020-12-21_13h11.06.577,Context_Learning_Pilot,2020.1.3,MacIntel,60,,,,,,,,,,,,,,,,,,,,,,,,,,,,,,,,,,,,,,,,,,,,22,0,22,0,1,,,,,,,,,,,,
,,,,,,,,,,,,,,,2,6,2020-12-21_13h11.06.577,Context_Learning_Pilot,2020.1.3,MacIntel,60,,,,,,,1,media/dnnb.png,1,Symb,i,TR,0,0,23,0,1,2,1.115543646,6,,,,,,,,,,,,,,,,i,1,1.68211,0,0,0,0,1,,,,,,,,,,,,,,,,,
,,,,,,,,,,,,,,,2,6,2020-12-21_13h11.06.577,Context_Learning_Pilot,2020.1.3,MacIntel,60,,,,,,,,,,,,,,,,,,,,,,,,,,,,,,,,,,,,,,,,,,,,23,0,23,0,1,,,,,,,,,,,,
,,,,,,,,,,,,,,,2,6,2020-12-21_13h11.06.577,Context_Learning_Pilot,2020.1.3,MacIntel,60,,,,,,,3,media/ddnb.png,1,Symb,l,TR,0,0,24,0,1,2,1.076295369,6,,,,,,,,,,,,,,,,l,1,1.60792,0,0,0,0,1,,,,,,,,,,,,,,,,,
,,,,,,,,,,,,,,,2,6,2020-12-21_13h11.06.577,Context_Learning_Pilot,2020.1.3,MacIntel,60,,,,,,,,,,,,,,,,,,,,,,,,,,,,,,,,,,,,,,,,,,,,24,0,24,0,1,,,,,,,,,,,,
,,,,,,,,,,,,,,,2,6,2020-12-21_13h11.06.577,Context_Learning_Pilot,2020.1.3,MacIntel,60,,,,,,,0,media/djnb.png,1,Symb,u,TR,0,0,25,0,1,2,0.39966312,6,,,,,,,,,,,,,,,,i,0,1.567435,0,0,0,0,1,,,,,,,,,,,,,,,,,
,,,,,,,,,,,,,,,2,6,2020-12-21_13h11.06.577,Context_Learning_Pilot,2020.1.3,MacIntel,60,,,,,,,,,,,,,,,,,,,,,,,,,,,,,,,,,,,,,,,,,,,,25,0,25,0,1,,,,,,,,,,,,
,,,,,,,,,,,,,,,2,6,2020-12-21_13h11.06.577,Context_Learning_Pilot,2020.1.3,MacIntel,60,,,,,,,2,media/dinb.png,1,Symb,h,TR,0,0,26,0,1,2,0.669431738,6,,,,,,,,,,,,,,,,h,1,1.665205,0,0,0,0,1,,,,,,,,,,,,,,,,,
,,,,,,,,,,,,,,,2,6,2020-12-21_13h11.06.577,Context_Learning_Pilot,2020.1.3,MacIntel,60,,,,,,,,,,,,,,,,,,,,,,,,,,,,,,,,,,,,,,,,,,,,26,0,26,0,1,,,,,,,,,,,,
,,,,,,,,,,,,,,,2,6,2020-12-21_13h11.06.577,Context_Learning_Pilot,2020.1.3,MacIntel,60,,,,,,,3,media/ddnb.png,1,Symb,l,TR,0,0,27,0,1,2,0.062445089,6,,,,,,,,,,,,,,,,h,0,1.699105,0,0,0,0,1,,,,,,,,,,,,,,,,,
,,,,,,,,,,,,,,,2,6,2020-12-21_13h11.06.577,Context_Learning_Pilot,2020.1.3,MacIntel,60,,,,,,,,,,,,,,,,,,,,,,,,,,,,,,,,,,,,,,,,,,,,27,0,27,0,1,,,,,,,,,,,,
,,,,,,,,,,,,,,,2,6,2020-12-21_13h11.06.577,Context_Learning_Pilot,2020.1.3,MacIntel,60,,,,,,,1,media/dnnb.png,1,Symb,i,TR,0,0,28,0,1,2,1.032387199,6,,,,,,,,,,,,,,,,i,1,1.610135,0,0,0,0,1,,,,,,,,,,,,,,,,,
,,,,,,,,,,,,,,,2,6,2020-12-21_13h11.06.577,Context_Learning_Pilot,2020.1.3,MacIntel,60,,,,,,,,,,,,,,,,,,,,,,,,,,,,,,,,,,,,,,,,,,,,28,0,28,0,1,,,,,,,,,,,,
,,,,,,,,,,,,,,,2,6,2020-12-21_13h11.06.577,Context_Learning_Pilot,2020.1.3,MacIntel,60,,,,,,,2,media/dinb.png,1,Symb,h,TR,0,0,29,0,1,2,0.504386572,6,,,,,,,,,,,,,,,,l,0,1.5703,0,0,0,0,1,,,,,,,,,,,,,,,,,
,,,,,,,,,,,,,,,2,6,2020-12-21_13h11.06.577,Context_Learning_Pilot,2020.1.3,MacIntel,60,,,,,,,,,,,,,,,,,,,,,,,,,,,,,,,,,,,,,,,,,,,,29,0,29,0,1,,,,,,,,,,,,
,,,,,,,,,,,,,,,2,6,2020-12-21_13h11.06.577,Context_Learning_Pilot,2020.1.3,MacIntel,60,,,,,,,0,media/djnb.png,1,Symb,u,TR,0,0,30,0,1,2,0.394268791,6,,,,,,,,,,,,,,,,h,0,1.601855,0,0,0,0,1,,,,,,,,,,,,,,,,,
,,,,,,,,,,,,,,,2,6,2020-12-21_13h11.06.577,Context_Learning_Pilot,2020.1.3,MacIntel,60,,,,,,,,,,,,,,,,,,,,,,,,,,,,,,,,,,,,,,,,,,,,30,0,30,0,1,,,,,,,,,,,,
,,,,,,,,,,,,,,,2,6,2020-12-21_13h11.06.577,Context_Learning_Pilot,2020.1.3,MacIntel,60,,,,,,,1,media/dnnb.png,1,Symb,i,TR,0,0,31,0,1,2,1.04998861,6,,,,,,,,,,,,,,,,i,1,1.597155,0,0,0,0,1,,,,,,,,,,,,,,,,,
,,,,,,,,,,,,,,,2,6,2020-12-21_13h11.06.577,Context_Learning_Pilot,2020.1.3,MacIntel,60,,,,,,,,,,,,,,,,,,,,,,,,,,,,,,,,,,,,,,,,,,,,31,0,31,0,1,,,,,,,,,,,,
,,,,,,,,,,,,,,,2,6,2020-12-21_13h11.06.577,Context_Learning_Pilot,2020.1.3,MacIntel,60,,,,,,,1,media/dnnb.png,1,Symb,i,TR,0,0,32,0,1,2,0.050403943,6,,,,,,,,,,,,,,,,u,0,1.48803,0,0,0,0,1,,,,,,,,,,,,,,,,,
,,,,,,,,,,,,,,,2,6,2020-12-21_13h11.06.577,Context_Learning_Pilot,2020.1.3,MacIntel,60,,,,,,,,,,,,,,,,,,,,,,,,,,,,,,,,,,,,,,,,,,,,32,0,32,0,1,,,,,,,,,,,,
,,,,,,,,,,,,,,,2,6,2020-12-21_13h11.06.577,Context_Learning_Pilot,2020.1.3,MacIntel,60,,,,,,,0,media/djnb.png,1,Symb,u,TR,0,0,33,0,1,2,0.117897139,6,,,,,,,,,,,,,,,,u,1,1.66423,0,0,0,0,1,,,,,,,,,,,,,,,,,
,,,,,,,,,,,,,,,2,6,2020-12-21_13h11.06.577,Context_Learning_Pilot,2020.1.3,MacIntel,60,,,,,,,,,,,,,,,,,,,,,,,,,,,,,,,,,,,,,,,,,,,,33,0,33,0,1,,,,,,,,,,,,
,,,,,,,,,,,,,,,2,6,2020-12-21_13h11.06.577,Context_Learning_Pilot,2020.1.3,MacIntel,60,,,,,,,2,media/dinb.png,1,Symb,h,TR,0,0,34,0,1,2,0.980028698,6,,,,,,,,,,,,,,,,h,1,1.65679,0,0,0,0,1,,,,,,,,,,,,,,,,,
,,,,,,,,,,,,,,,2,6,2020-12-21_13h11.06.577,Context_Learning_Pilot,2020.1.3,MacIntel,60,,,,,,,,,,,,,,,,,,,,,,,,,,,,,,,,,,,,,,,,,,,,34,0,34,0,1,,,,,,,,,,,,
,,,,,,,,,,,,,,,2,6,2020-12-21_13h11.06.577,Context_Learning_Pilot,2020.1.3,MacIntel,60,,,,,,,2,media/dinb.png,1,Symb,h,TR,0,0,35,0,1,2,0.45457196,6,,,,,,,,,,,,,,,,h,1,1.629315,0,0,0,0,1,,,,,,,,,,,,,,,,,
,,,,,,,,,,,,,,,2,6,2020-12-21_13h11.06.577,Context_Learning_Pilot,2020.1.3,MacIntel,60,,,,,,,,,,,,,,,,,,,,,,,,,,,,,,,,,,,,,,,,,,,,35,0,35,0,1,,,,,,,,,,,,
,,,,,,,,,,,,,,,2,6,2020-12-21_13h11.06.577,Context_Learning_Pilot,2020.1.3,MacIntel,60,,,,,,,0,media/djnb.png,1,Symb,u,TR,0,0,36,0,1,2,0.020329252,6,,,,,,,,,,,,,,,,l,0,1.6781,0,0,0,0,1,,,,,,,,,,,,,,,,,
,,,,,,,,,,,,,,,2,6,2020-12-21_13h11.06.577,Context_Learning_Pilot,2020.1.3,MacIntel,60,,,,,,,,,,,,,,,,,,,,,,,,,,,,,,,,,,,,,,,,,,,,36,0,36,0,1,,,,,,,,,,,,
,,,,,,,,,,,,,,,2,6,2020-12-21_13h11.06.577,Context_Learning_Pilot,2020.1.3,MacIntel,60,,,,,,,3,media/ddnb.png,1,Symb,l,TR,0,0,37,0,1,2,0.850456062,6,,,,,,,,,,,,,,,,l,1,1.587745,0,0,0,0,1,,,,,,,,,,,,,,,,,
,,,,,,,,,,,,,,,2,6,2020-12-21_13h11.06.577,Context_Learning_Pilot,2020.1.3,MacIntel,60,,,,,,,,,,,,,,,,,,,,,,,,,,,,,,,,,,,,,,,,,,,,37,0,37,0,1,,,,,,,,,,,,
,,,,,,,,,,,,,,,2,6,2020-12-21_13h11.06.577,Context_Learning_Pilot,2020.1.3,MacIntel,60,,,,,,,1,media/dnnb.png,1,Symb,i,TR,0,0,38,0,1,2,0.464317869,6,,,,,,,,,,,,,,,,i,1,1.665895,0,0,0,0,1,,,,,,,,,,,,,,,,,
,,,,,,,,,,,,,,,2,6,2020-12-21_13h11.06.577,Context_Learning_Pilot,2020.1.3,MacIntel,60,,,,,,,,,,,,,,,,,,,,,,,,,,,,,,,,,,,,,,,,,,,,38,0,38,0,1,,,,,,,,,,,,
,,,,,,,,,,,,,,,2,6,2020-12-21_13h11.06.577,Context_Learning_Pilot,2020.1.3,MacIntel,60,,,,,,,3,media/ddnb.png,1,Symb,l,TR,0,0,39,0,1,2,1.172744496,6,,,,,,,,,,,,,,,,l,1,1.571965,0,0,0,0,1,,,,,,,,,,,,,,,,,
,,,,,,,,,,,,,,,2,6,2020-12-21_13h11.06.577,Context_Learning_Pilot,2020.1.3,MacIntel,60,,,,,,,,,,,,,,,,,,,,,,,,,,,,,,,,,,,,,,,,,,,,39,0,39,0,1,,,,,,,,,,,,
,,,,,,,,,,,,,,,2,6,2020-12-21_13h11.06.577,Context_Learning_Pilot,2020.1.3,MacIntel,60,,,,,,,0,media/djnb.png,1,Symb,u,TR,0,0,40,0,1,2,0.920994983,6,,,,,,,,,,,,,,,,u,1,1.618755,0,0,0,0,1,,,,,,,,,,,,,,,,,
,,,,,,,,,,,,,,,2,6,2020-12-21_13h11.06.577,Context_Learning_Pilot,2020.1.3,MacIntel,60,,,,,,,,,,,,,,,,,,,,,,,,,,,,,,,,,,,,,,,,,,,,40,0,40,0,1,,,,,,,,,,,,
,,,,,,,,,,,,,,,2,6,2020-12-21_13h11.06.577,Context_Learning_Pilot,2020.1.3,MacIntel,60,,,,,,,3,media/ddnb.png,1,Symb,l,TR,0,0,41,0,1,2,0.917921144,6,,,,,,,,,,,,,,,,l,1,1.597545,0,0,0,0,1,,,,,,,,,,,,,,,,,
,,,,,,,,,,,,,,,2,6,2020-12-21_13h11.06.577,Context_Learning_Pilot,2020.1.3,MacIntel,60,,,,,,,,,,,,,,,,,,,,,,,,,,,,,,,,,,,,,,,,,,,,41,0,41,0,1,,,,,,,,,,,,
,,,,,,,,,,,,,,,2,6,2020-12-21_13h11.06.577,Context_Learning_Pilot,2020.1.3,MacIntel,60,,,,,,,1,media/dnnb.png,1,Symb,i,TR,0,0,42,0,1,2,0.23392924,6,,,,,,,,,,,,,,,,i,1,1.52891,0,0,0,0,1,,,,,,,,,,,,,,,,,
,,,,,,,,,,,,,,,2,6,2020-12-21_13h11.06.577,Context_Learning_Pilot,2020.1.3,MacIntel,60,,,,,,,,,,,,,,,,,,,,,,,,,,,,,,,,,,,,,,,,,,,,42,0,42,0,1,,,,,,,,,,,,
,,,,,,,,,,,,,,,2,6,2020-12-21_13h11.06.577,Context_Learning_Pilot,2020.1.3,MacIntel,60,,,,,,,2,media/dinb.png,1,Symb,h,TR,0,0,43,0,1,2,0.578506573,6,,,,,,,,,,,,,,,,u,0,1.537395,0,0,0,0,1,,,,,,,,,,,,,,,,,
,,,,,,,,,,,,,,,2,6,2020-12-21_13h11.06.577,Context_Learning_Pilot,2020.1.3,MacIntel,60,,,,,,,,,,,,,,,,,,,,,,,,,,,,,,,,,,,,,,,,,,,,43,0,43,0,1,,,,,,,,,,,,
,,,,,,,,,,,,,,,2,6,2020-12-21_13h11.06.577,Context_Learning_Pilot,2020.1.3,MacIntel,60,,,,,,,0,media/djnb.png,1,Symb,u,TR,0,0,44,0,1,2,1.184722367,6,,,,,,,,,,,,,,,,u,1,1.63309,0,0,0,0,1,,,,,,,,,,,,,,,,,
,,,,,,,,,,,,,,,2,6,2020-12-21_13h11.06.577,Context_Learning_Pilot,2020.1.3,MacIntel,60,,,,,,,,,,,,,,,,,,,,,,,,,,,,,,,,,,,,,,,,,,,,44,0,44,0,1,,,,,,,,,,,,
,,,,,,,,,,,,,,,2,6,2020-12-21_13h11.06.577,Context_Learning_Pilot,2020.1.3,MacIntel,60,,,,,,,2,media/dinb.png,1,Symb,h,TR,0,0,45,0,1,2,1.151105094,6,,,,,,,,,,,,,,,,h,1,1.646625,0,0,0,0,1,,,,,,,,,,,,,,,,,
,,,,,,,,,,,,,,,2,6,2020-12-21_13h11.06.577,Context_Learning_Pilot,2020.1.3,MacIntel,60,,,,,,,,,,,,,,,,,,,,,,,,,,,,,,,,,,,,,,,,,,,,45,0,45,0,1,,,,,,,,,,,,
,,,,,,,,,,,,,,,2,6,2020-12-21_13h11.06.577,Context_Learning_Pilot,2020.1.3,MacIntel,60,,,,,,,1,media/dnnb.png,1,Symb,i,TR,0,0,46,0,1,2,0.203489672,6,,,,,,,,,,,,,,,,u,0,1.61813,0,0,0,0,1,,,,,,,,,,,,,,,,,
,,,,,,,,,,,,,,,2,6,2020-12-21_13h11.06.577,Context_Learning_Pilot,2020.1.3,MacIntel,60,,,,,,,,,,,,,,,,,,,,,,,,,,,,,,,,,,,,,,,,,,,,46,0,46,0,1,,,,,,,,,,,,
,,,,,,,,,,,,,,,2,6,2020-12-21_13h11.06.577,Context_Learning_Pilot,2020.1.3,MacIntel,60,,,,,,,3,media/ddnb.png,1,Symb,l,TR,0,0,47,0,1,2,1.199114572,6,,,,,,,,,,,,,,,,l,1,1.68866,0,0,0,0,1,,,,,,,,,,,,,,,,,
,,,,,,,,,,,,,,,2,6,2020-12-21_13h11.06.577,Context_Learning_Pilot,2020.1.3,MacIntel,60,,,,,,,,,,,,,,,,,,,,,,,,,,,,,,,,,,,,,,,,,,,,47,0,47,0,1,,,,,,,,,,,,
,,,,,,,,,,,,,,,2,6,2020-12-21_13h11.06.577,Context_Learning_Pilot,2020.1.3,MacIntel,60,,,,,,,1,media/dnnb.png,1,Symb,i,TR,0,0,48,0,1,2,0.159623156,6,,,,,,,,,,,,,,,,i,1,1.5931,0,0,0,0,1,,,,,,,,,,,,,,,,,
,,,,,,,,,,,,,,,2,6,2020-12-21_13h11.06.577,Context_Learning_Pilot,2020.1.3,MacIntel,60,,,,,,,,,,,,,,,,,,,,,,,,,,,,,,,,,,,,,,,,,,,,48,0,48,0,1,,,,,,,,,,,,
,,,,,,,,,,,,,,,2,6,2020-12-21_13h11.06.577,Context_Learning_Pilot,2020.1.3,MacIntel,60,,,,,,,1,media/dnnb.png,1,Symb,i,TR,0,0,49,0,1,2,0.594290661,6,,,,,,,,,,,,,,,,i,1,1.55775,0,0,0,0,1,,,,,,,,,,,,,,,,,
,,,,,,,,,,,,,,,2,6,2020-12-21_13h11.06.577,Context_Learning_Pilot,2020.1.3,MacIntel,60,,,,,,,,,,,,,,,,,,,,,,,,,,,,,,,,,,,,,,,,,,,,49,0,49,0,1,,,,,,,,,,,,
,,,,,,,,,,,,,,,2,6,2020-12-21_13h11.06.577,Context_Learning_Pilot,2020.1.3,MacIntel,60,,,,,,,0,media/djnb.png,1,Symb,u,TR,0,0,50,0,1,2,0.840292109,6,,,,,,,,,,,,,,,,u,1,1.498815,0,0,0,0,1,,,,,,,,,,,,,,,,,
,,,,,,,,,,,,,,,2,6,2020-12-21_13h11.06.577,Context_Learning_Pilot,2020.1.3,MacIntel,60,,,,,,,,,,,,,,,,,,,,,,,,,,,,,,,,,,,,,,,,,,,,50,0,50,0,1,,,,,,,,,,,,
,,,,,,,,,,,,,,,2,6,2020-12-21_13h11.06.577,Context_Learning_Pilot,2020.1.3,MacIntel,60,,,,,,,0,media/djnb.png,1,Symb,u,TR,0,0,51,0,1,2,1.153016088,6,,,,,,,,,,,,,,,,u,1,1.59724,0,0,0,0,1,,,,,,,,,,,,,,,,,
,,,,,,,,,,,,,,,2,6,2020-12-21_13h11.06.577,Context_Learning_Pilot,2020.1.3,MacIntel,60,,,,,,,,,,,,,,,,,,,,,,,,,,,,,,,,,,,,,,,,,,,,51,0,51,0,1,,,,,,,,,,,,
,,,,,,,,,,,,,,,2,6,2020-12-21_13h11.06.577,Context_Learning_Pilot,2020.1.3,MacIntel,60,,,,,,,2,media/dinb.png,1,Symb,h,TR,0,0,52,0,1,2,0.295957388,6,,,,,,,,,,,,,,,,h,1,1.536665,0,0,0,0,1,,,,,,,,,,,,,,,,,
,,,,,,,,,,,,,,,2,6,2020-12-21_13h11.06.577,Context_Learning_Pilot,2020.1.3,MacIntel,60,,,,,,,,,,,,,,,,,,,,,,,,,,,,,,,,,,,,,,,,,,,,52,0,52,0,1,,,,,,,,,,,,
,,,,,,,,,,,,,,,2,6,2020-12-21_13h11.06.577,Context_Learning_Pilot,2020.1.3,MacIntel,60,,,,,,,3,media/ddnb.png,1,Symb,l,TR,0,0,53,0,1,2,1.125913742,6,,,,,,,,,,,,,,,,l,1,1.629395,0,0,0,0,1,,,,,,,,,,,,,,,,,
,,,,,,,,,,,,,,,2,6,2020-12-21_13h11.06.577,Context_Learning_Pilot,2020.1.3,MacIntel,60,,,,,,,,,,,,,,,,,,,,,,,,,,,,,,,,,,,,,,,,,,,,53,0,53,0,1,,,,,,,,,,,,
,,,,,,,,,,,,,,,2,6,2020-12-21_13h11.06.577,Context_Learning_Pilot,2020.1.3,MacIntel,60,,,,,,,2,media/dinb.png,1,Symb,h,TR,0,0,54,0,1,2,1.063698768,6,,,,,,,,,,,,,,,,h,1,1.59134,0,0,0,0,1,,,,,,,,,,,,,,,,,
,,,,,,,,,,,,,,,2,6,2020-12-21_13h11.06.577,Context_Learning_Pilot,2020.1.3,MacIntel,60,,,,,,,,,,,,,,,,,,,,,,,,,,,,,,,,,,,,,,,,,,,,54,0,54,0,1,,,,,,,,,,,,
,,,,,,,,,,,,,,,2,6,2020-12-21_13h11.06.577,Context_Learning_Pilot,2020.1.3,MacIntel,60,,,,,,,3,media/ddnb.png,1,Symb,l,TR,0,0,55,0,1,2,0.518615642,6,,,,,,,,,,,,,,,,i,0,1.62604,0,0,0,0,1,,,,,,,,,,,,,,,,,
,,,,,,,,,,,,,,,2,6,2020-12-21_13h11.06.577,Context_Learning_Pilot,2020.1.3,MacIntel,60,,,,,,,,,,,,,,,,,,,,,,,,,,,,,,,,,,,,,,,,,,,,55,0,55,0,1,,,,,,,,,,,,
,,,,,,,,,,,,,,,2,6,2020-12-21_13h11.06.577,Context_Learning_Pilot,2020.1.3,MacIntel,60,,,,,,,2,media/dinb.png,1,Symb,h,TR,0,0,56,0,1,2,0.29527243,6,,,,,,,,,,,,,,,,u,0,1.55693,0,0,0,0,1,,,,,,,,,,,,,,,,,
,,,,,,,,,,,,,,,2,6,2020-12-21_13h11.06.577,Context_Learning_Pilot,2020.1.3,MacIntel,60,,,,,,,,,,,,,,,,,,,,,,,,,,,,,,,,,,,,,,,,,,,,56,0,56,0,1,,,,,,,,,,,,
,,,,,,,,,,,,,,,2,6,2020-12-21_13h11.06.577,Context_Learning_Pilot,2020.1.3,MacIntel,60,,,,,,,3,media/ddnb.png,1,Symb,l,TR,0,0,57,0,1,2,0.198059366,6,,,,,,,,,,,,,,,,u,0,1.557325,0,0,0,0,1,,,,,,,,,,,,,,,,,
,,,,,,,,,,,,,,,2,6,2020-12-21_13h11.06.577,Context_Learning_Pilot,2020.1.3,MacIntel,60,,,,,,,,,,,,,,,,,,,,,,,,,,,,,,,,,,,,,,,,,,,,57,0,57,0,1,,,,,,,,,,,,
,,,,,,,,,,,,,,,2,6,2020-12-21_13h11.06.577,Context_Learning_Pilot,2020.1.3,MacIntel,60,,,,,,,1,media/dnnb.png,1,Symb,i,TR,0,0,58,0,1,2,0.140624049,6,,,,,,,,,,,,,,,,h,0,1.72555,0,0,0,0,1,,,,,,,,,,,,,,,,,
,,,,,,,,,,,,,,,2,6,2020-12-21_13h11.06.577,Context_Learning_Pilot,2020.1.3,MacIntel,60,,,,,,,,,,,,,,,,,,,,,,,,,,,,,,,,,,,,,,,,,,,,58,0,58,0,1,,,,,,,,,,,,
,,,,,,,,,,,,,,,2,6,2020-12-21_13h11.06.577,Context_Learning_Pilot,2020.1.3,MacIntel,60,,,,,,,1,media/dnnb.png,1,Symb,i,TR,0,0,59,0,1,2,1.258756141,6,,,,,,,,,,,,,,,,i,1,1.647355,0,0,0,0,1,,,,,,,,,,,,,,,,,
,,,,,,,,,,,,,,,2,6,2020-12-21_13h11.06.577,Context_Learning_Pilot,2020.1.3,MacIntel,60,,,,,,,,,,,,,,,,,,,,,,,,,,,,,,,,,,,,,,,,,,,,59,0,59,0,1,,,,,,,,,,,,
,,,,,,,,,,,,,,,2,6,2020-12-21_13h11.06.577,Context_Learning_Pilot,2020.1.3,MacIntel,60,,,,,,,2,media/dinb.png,1,Symb,h,TR,0,0,60,0,1,2,0.212162614,6,,,,,,,,,,,,,,,,i,0,1.64473,0,0,0,0,1,,,,,,,,,,,,,,,,,
,,,,,,,,,,,,,,,2,6,2020-12-21_13h11.06.577,Context_Learning_Pilot,2020.1.3,MacIntel,60,,,,,,,,,,,,,,,,,,,,,,,,,,,,,,,,,,,,,,,,,,,,60,0,60,0,1,,,,,,,,,,,,
,,,,,,,,,,,,,,,2,6,2020-12-21_13h11.06.577,Context_Learning_Pilot,2020.1.3,MacIntel,60,,,,,,,0,media/djnb.png,1,Symb,u,TR,0,0,61,0,1,2,0.338452147,6,,,,,,,,,,,,,,,,l,0,1.556395,0,0,0,0,1,,,,,,,,,,,,,,,,,
,,,,,,,,,,,,,,,2,6,2020-12-21_13h11.06.577,Context_Learning_Pilot,2020.1.3,MacIntel,60,,,,,,,,,,,,,,,,,,,,,,,,,,,,,,,,,,,,,,,,,,,,61,0,61,0,1,,,,,,,,,,,,
,,,,,,,,,,,,,,,2,6,2020-12-21_13h11.06.577,Context_Learning_Pilot,2020.1.3,MacIntel,60,,,,,,,0,media/djnb.png,1,Symb,u,TR,0,0,62,0,1,2,0.386478435,6,,,,,,,,,,,,,,,,u,1,1.616775,0,0,0,0,1,,,,,,,,,,,,,,,,,
,,,,,,,,,,,,,,,2,6,2020-12-21_13h11.06.577,Context_Learning_Pilot,2020.1.3,MacIntel,60,,,,,,,,,,,,,,,,,,,,,,,,,,,,,,,,,,,,,,,,,,,,62,0,62,0,1,,,,,,,,,,,,
,,,,,,,,,,,,,,,2,6,2020-12-21_13h11.06.577,Context_Learning_Pilot,2020.1.3,MacIntel,60,,,,,,,3,media/ddnb.png,1,Symb,l,TR,0,0,63,0,1,2,0.427177884,6,,,,,,,,,,,,,,,,u,0,1.69828,0,0,0,0,1,,,,,,,,,,,,,,,,,
,,,,,,,,,,,,,,,2,6,2020-12-21_13h11.06.577,Context_Learning_Pilot,2020.1.3,MacIntel,60,,,,,,,,,,,,,,,,,,,,,,,,,,,,,,,,,,,,,,,,,,,,63,0,63,0,1,,,,,,,,,,,,
,,,,,,,,,,,,,,,2,6,2020-12-21_13h11.06.577,Context_Learning_Pilot,2020.1.3,MacIntel,60,,,,,,,0,media/djnb.png,1,Symb,u,TR,0,0,64,0,1,2,0.419832616,6,,,,,,,,,,,,,,,,h,0,1.646735,0,0,0,0,1,,,,,,,,,,,,,,,,,
,,,,,,,,,,,,,,,2,6,2020-12-21_13h11.06.577,Context_Learning_Pilot,2020.1.3,MacIntel,60,,,,,,,,,,,,,,,,,,,,,,,,,,,,,,,,,,,,,,,,,,,,64,0,64,0,1,,,,,,,,,,,,
,,,,,,,,,,,,,,,2,6,2020-12-21_13h11.06.577,Context_Learning_Pilot,2020.1.3,MacIntel,60,,,,,,,3,media/ddnb.png,1,Symb,l,TR,0,0,65,0,1,2,0.217683766,6,,,,,,,,,,,,,,,,u,0,1.74896,0,0,0,0,1,,,,,,,,,,,,,,,,,
,,,,,,,,,,,,,,,2,6,2020-12-21_13h11.06.577,Context_Learning_Pilot,2020.1.3,MacIntel,60,,,,,,,,,,,,,,,,,,,,,,,,,,,,,,,,,,,,,,,,,,,,65,0,65,0,1,,,,,,,,,,,,
,,,,,,,,,,,,,,,2,6,2020-12-21_13h11.06.577,Context_Learning_Pilot,2020.1.3,MacIntel,60,,,,,,,1,media/dnnb.png,1,Symb,i,TR,0,0,66,0,1,2,0.259923978,6,,,,,,,,,,,,,,,,i,1,1.59623,0,0,0,0,1,,,,,,,,,,,,,,,,,
,,,,,,,,,,,,,,,2,6,2020-12-21_13h11.06.577,Context_Learning_Pilot,2020.1.3,MacIntel,60,,,,,,,,,,,,,,,,,,,,,,,,,,,,,,,,,,,,,,,,,,,,66,0,66,0,1,,,,,,,,,,,,
,,,,,,,,,,,,,,,2,6,2020-12-21_13h11.06.577,Context_Learning_Pilot,2020.1.3,MacIntel,60,,,,,,,2,media/dinb.png,1,Symb,h,TR,0,0,67,0,1,2,1.191582946,6,,,,,,,,,,,,,,,,h,1,1.63002,0,0,0,0,1,,,,,,,,,,,,,,,,,
,,,,,,,,,,,,,,,2,6,2020-12-21_13h11.06.577,Context_Learning_Pilot,2020.1.3,MacIntel,60,,,,,,,,,,,,,,,,,,,,,,,,,,,,,,,,,,,,,,,,,,,,67,0,67,0,1,,,,,,,,,,,,
,,,,,,,,,,,,,,,2,6,2020-12-21_13h11.06.577,Context_Learning_Pilot,2020.1.3,MacIntel,60,,,,,,,0,media/djnb.png,1,Symb,u,TR,0,0,68,0,1,2,0.098893976,6,,,,,,,,,,,,,,,,h,0,1.57098,0,0,0,0,1,,,,,,,,,,,,,,,,,
,,,,,,,,,,,,,,,2,6,2020-12-21_13h11.06.577,Context_Learning_Pilot,2020.1.3,MacIntel,60,,,,,,,,,,,,,,,,,,,,,,,,,,,,,,,,,,,,,,,,,,,,68,0,68,0,1,,,,,,,,,,,,
