Import_Stim.thisRepN,Import_Stim.thisTrialN,Import_Stim.thisN,Import_Stim.thisIndex,Import_Stim.ran,Stim,CorrResp,Ctx_color,imStim,imStim_r,imStim_g,x_pos,y_pos,Hand,Feedback,participant,session,date,expName,psychopyVersion,OS,frameRate,stim_key_map_ctx1,stim_key_map_ctx2,Instr_Exp_Key.keys,Instr_Exp_Key.rt,Instr_Exp_Bool.thisRepN,Instr_Exp_Bool.thisTrialN,Instr_Exp_Bool.thisN,Instr_Exp_Bool.thisIndex,Instr_Exp_Bool.ran,Instr_RT_Hand_Key.keys,Instr_RT_Hand_Key.rt,Symbol,ctx,Stim_Type,Finger,Block_Type,Remap,Repeat_Count,Trial_Count,Grp_B,Brp_R,Block_Num,Set_Prep_Time,Session,RT_Press_Hand.keys,RT_Press_Hand.corr,RT_Press_Hand.rt,RT_Iter_Hand.thisRepN,RT_Iter_Hand.thisTrialN,RT_Iter_Hand.thisN,RT_Iter_Hand.thisIndex,RT_Iter_Hand.ran,Instr_HAND_TR_press.keys,Instr_HAND_TR_press.rt,Instr_Block_Num_Press.keys,Instr_Block_Num_Press.rt,TR_Press_Hand.keys,TR_Press_Hand.corr,TR_Press_Hand.rt,TR_Feedback_Bool_Hand.thisRepN,TR_Feedback_Bool_Hand.thisTrialN,TR_Feedback_Bool_Hand.thisN,TR_Feedback_Bool_Hand.thisIndex,TR_Feedback_Bool_Hand.ran,TR_Iter_Hand.thisRepN,TR_Iter_Hand.thisTrialN,TR_Iter_Hand.thisN,TR_Iter_Hand.thisIndex,TR_Iter_Hand.ran,TR_Block_Hand.thisRepN,TR_Block_Hand.thisTrialN,TR_Block_Hand.thisN,TR_Block_Hand.thisIndex,TR_Block_Hand.ran,Instr_CR_Old_Press_Ctx1.keys,Instr_CR_Old_Press_Ctx1.rt,Shape,RT_Press.keys,RT_Press.corr,RT_Press.rt,CR_Old_Iter_Ctx12.thisRepN,CR_Old_Iter_Ctx12.thisTrialN,CR_Old_Iter_Ctx12.thisN,CR_Old_Iter_Ctx12.thisIndex,CR_Old_Iter_Ctx12.ran,Instr_RT_Press.keys,Instr_RT_Press.rt,RT_Iter.thisRepN,RT_Iter.thisTrialN,RT_Iter.thisN,RT_Iter.thisIndex,RT_Iter.ran,RT_Block.thisRepN,RT_Block.thisTrialN,RT_Block.thisN,RT_Block.thisIndex,RT_Block.ran,Instr_TR_Old_Press.keys,Instr_TR_Old_Press.rt,TR_Press.keys,TR_Press.corr,TR_Press.rt,TR_Feedback_Bool.thisRepN,TR_Feedback_Bool.thisTrialN,TR_Feedback_Bool.thisN,TR_Feedback_Bool.thisIndex,TR_Feedback_Bool.ran,TR_Iter.thisRepN,TR_Iter.thisTrialN,TR_Iter.thisN,TR_Iter.thisIndex,TR_Iter.ran,TR_Old_Block.thisRepN,TR_Old_Block.thisTrialN,TR_Old_Block.thisN,TR_Old_Block.thisIndex,TR_Old_Block.ran,TR_Penalty_Press.keys,TR_Penalty_Press.rt,TR_Penalty_Bool.thisRepN,TR_Penalty_Bool.thisTrialN,TR_Penalty_Bool.thisN,TR_Penalty_Bool.thisIndex,TR_Penalty_Bool.ran
0,0,0,0,1,0,h,red,media/djnb.png,media/djnb_r.png,media/djnb_g.png,-0.038,0.075,media/hand.png,media/check.png,2,1,2020-12-07_09h28.06.760,Context_Learning_Pilot,2020.1.3,MacIntel,60,,,,,,,,,,,,,,,,,,,,,,,,,,,,,,,,,,,,,,,,,,,,,,,,,,,,,,,,,,,,,,,,,,,,,,,,,,,,,,,,,,,,,,,,,,,,,,,,,,,,,,,,
0,1,1,1,1,1,u,red,media/dnnb.png,media/dnnb_r.png,media/dnnb_g.png,0.014,0.1,media/hand.png,media/cross.png,2,1,2020-12-07_09h28.06.760,Context_Learning_Pilot,2020.1.3,MacIntel,60,,,,,,,,,,,,,,,,,,,,,,,,,,,,,,,,,,,,,,,,,,,,,,,,,,,,,,,,,,,,,,,,,,,,,,,,,,,,,,,,,,,,,,,,,,,,,,,,,,,,,,,,
0,2,2,2,1,2,i,red,media/dinb.png,media/dinb_r.png,media/dinb_g.png,0.057,0.08,media/hand.png,media/check.png,2,1,2020-12-07_09h28.06.760,Context_Learning_Pilot,2020.1.3,MacIntel,60,,,,,,,,,,,,,,,,,,,,,,,,,,,,,,,,,,,,,,,,,,,,,,,,,,,,,,,,,,,,,,,,,,,,,,,,,,,,,,,,,,,,,,,,,,,,,,,,,,,,,,,,
0,3,3,3,1,3,l,red,media/ddnb.png,media/ddnb_r.png,media/ddnb_g.png,0.1,0.04,media/hand.png,media/cross.png,2,1,2020-12-07_09h28.06.760,Context_Learning_Pilot,2020.1.3,MacIntel,60,,,,,,,,,,,,,,,,,,,,,,,,,,,,,,,,,,,,,,,,,,,,,,,,,,,,,,,,,,,,,,,,,,,,,,,,,,,,,,,,,,,,,,,,,,,,,,,,,,,,,,,,
0,4,4,4,1,0,h,green,media/djnb.png,media/djnb_r.png,media/djnb_g.png,-0.038,0.075,media/hand.png,media/check.png,2,1,2020-12-07_09h28.06.760,Context_Learning_Pilot,2020.1.3,MacIntel,60,,,,,,,,,,,,,,,,,,,,,,,,,,,,,,,,,,,,,,,,,,,,,,,,,,,,,,,,,,,,,,,,,,,,,,,,,,,,,,,,,,,,,,,,,,,,,,,,,,,,,,,,
0,5,5,5,1,1,u,green,media/dnnb.png,media/dnnb_r.png,media/dnnb_g.png,0.014,0.1,media/hand.png,media/cross.png,2,1,2020-12-07_09h28.06.760,Context_Learning_Pilot,2020.1.3,MacIntel,60,,,,,,,,,,,,,,,,,,,,,,,,,,,,,,,,,,,,,,,,,,,,,,,,,,,,,,,,,,,,,,,,,,,,,,,,,,,,,,,,,,,,,,,,,,,,,,,,,,,,,,,,
0,6,6,6,1,2,i,green,media/dinb.png,media/dinb_r.png,media/dinb_g.png,0.057,0.08,media/hand.png,media/check.png,2,1,2020-12-07_09h28.06.760,Context_Learning_Pilot,2020.1.3,MacIntel,60,,,,,,,,,,,,,,,,,,,,,,,,,,,,,,,,,,,,,,,,,,,,,,,,,,,,,,,,,,,,,,,,,,,,,,,,,,,,,,,,,,,,,,,,,,,,,,,,,,,,,,,,
,,,,,,,,,,,,,,,2,1,2020-12-07_09h28.06.760,Context_Learning_Pilot,2020.1.3,MacIntel,60,"[1,2,0,3]","[0,3,1,2]",space,7.17719,0,0,0,0,1,,,,,,,,,,,,,,,,,,,,,,,,,,,,,,,,,,,,,,,,,,,,,,,,,,,,,,,,,,,,,,,,,,,,,,,,,,,,,,,,,,,,,,,,,,,,,,,
,,,,,,,,,,,,,,,2,1,2020-12-07_09h28.06.760,Context_Learning_Pilot,2020.1.3,MacIntel,60,,,,,,,,,,h,14.173965,3,0,Hand,l,RT,0,0,0,0,1,1,0.736099385,1,l,1,0.758785,0,0,0,0,1,,,,,,,,,,,,,,,,,,,,,,,,,,,,,,,,,,,,,,,,,,,,,,,,,,,,,,,,,,,,,,,,,,,,,,,,
,,,,,,,,,,,,,,,2,1,2020-12-07_09h28.06.760,Context_Learning_Pilot,2020.1.3,MacIntel,60,,,,,,,,,,,,0,0,Hand,h,RT,0,0,1,0,1,1,0.546417592,1,u,0,0.61027,1,0,1,0,1,,,,,,,,,,,,,,,,,,,,,,,,,,,,,,,,,,,,,,,,,,,,,,,,,,,,,,,,,,,,,,,,,,,,,,,,
,,,,,,,,,,,,,,,2,1,2020-12-07_09h28.06.760,Context_Learning_Pilot,2020.1.3,MacIntel,60,,,,,,,,,,,,0,0,Hand,h,RT,0,0,2,0,1,1,0.351951386,1,h,1,0.521685,2,0,2,0,1,,,,,,,,,,,,,,,,,,,,,,,,,,,,,,,,,,,,,,,,,,,,,,,,,,,,,,,,,,,,,,,,,,,,,,,,
,,,,,,,,,,,,,,,2,1,2020-12-07_09h28.06.760,Context_Learning_Pilot,2020.1.3,MacIntel,60,,,,,,,,,,,,3,0,Hand,l,RT,0,0,3,0,1,1,1.032424465,1,l,1,0.484565,3,0,3,0,1,,,,,,,,,,,,,,,,,,,,,,,,,,,,,,,,,,,,,,,,,,,,,,,,,,,,,,,,,,,,,,,,,,,,,,,,
,,,,,,,,,,,,,,,2,1,2020-12-07_09h28.06.760,Context_Learning_Pilot,2020.1.3,MacIntel,60,,,,,,,,,,,,1,0,Hand,u,RT,0,0,4,0,1,1,0.351592639,1,u,1,0.6239,4,0,4,0,1,,,,,,,,,,,,,,,,,,,,,,,,,,,,,,,,,,,,,,,,,,,,,,,,,,,,,,,,,,,,,,,,,,,,,,,,
,,,,,,,,,,,,,,,2,1,2020-12-07_09h28.06.760,Context_Learning_Pilot,2020.1.3,MacIntel,60,,,,,,,,,,,,1,0,Hand,u,RT,0,0,5,0,1,1,0.806983665,1,u,1,0.567835,5,0,5,0,1,,,,,,,,,,,,,,,,,,,,,,,,,,,,,,,,,,,,,,,,,,,,,,,,,,,,,,,,,,,,,,,,,,,,,,,,
,,,,,,,,,,,,,,,2,1,2020-12-07_09h28.06.760,Context_Learning_Pilot,2020.1.3,MacIntel,60,,,,,,,,,,,,2,0,Hand,i,RT,0,0,6,0,1,1,0.55493051,1,i,1,0.518465,6,0,6,0,1,,,,,,,,,,,,,,,,,,,,,,,,,,,,,,,,,,,,,,,,,,,,,,,,,,,,,,,,,,,,,,,,,,,,,,,,
,,,,,,,,,,,,,,,2,1,2020-12-07_09h28.06.760,Context_Learning_Pilot,2020.1.3,MacIntel,60,,,,,,,,,,,,2,0,Hand,i,RT,0,0,7,0,1,1,0.115339597,1,i,1,0.544525,7,0,7,0,1,,,,,,,,,,,,,,,,,,,,,,,,,,,,,,,,,,,,,,,,,,,,,,,,,,,,,,,,,,,,,,,,,,,,,,,,
,,,,,,,,,,,,,,,2,1,2020-12-07_09h28.06.760,Context_Learning_Pilot,2020.1.3,MacIntel,60,,,,,,,,,,,,2,0,Hand,i,RT,0,0,8,0,1,1,1.225590663,1,i,1,0.5078,8,0,8,0,1,,,,,,,,,,,,,,,,,,,,,,,,,,,,,,,,,,,,,,,,,,,,,,,,,,,,,,,,,,,,,,,,,,,,,,,,
,,,,,,,,,,,,,,,2,1,2020-12-07_09h28.06.760,Context_Learning_Pilot,2020.1.3,MacIntel,60,,,,,,,,,,,,1,0,Hand,u,RT,0,0,9,0,1,1,0.940174292,1,u,1,0.472115,9,0,9,0,1,,,,,,,,,,,,,,,,,,,,,,,,,,,,,,,,,,,,,,,,,,,,,,,,,,,,,,,,,,,,,,,,,,,,,,,,
,,,,,,,,,,,,,,,2,1,2020-12-07_09h28.06.760,Context_Learning_Pilot,2020.1.3,MacIntel,60,,,,,,,,,,,,1,0,Hand,u,RT,0,0,10,0,1,1,1.263619974,1,u,1,0.48354,10,0,10,0,1,,,,,,,,,,,,,,,,,,,,,,,,,,,,,,,,,,,,,,,,,,,,,,,,,,,,,,,,,,,,,,,,,,,,,,,,
,,,,,,,,,,,,,,,2,1,2020-12-07_09h28.06.760,Context_Learning_Pilot,2020.1.3,MacIntel,60,,,,,,,,,,,,2,0,Hand,i,RT,0,0,11,0,1,1,0.962513346,1,i,1,0.47293,11,0,11,0,1,,,,,,,,,,,,,,,,,,,,,,,,,,,,,,,,,,,,,,,,,,,,,,,,,,,,,,,,,,,,,,,,,,,,,,,,
,,,,,,,,,,,,,,,2,1,2020-12-07_09h28.06.760,Context_Learning_Pilot,2020.1.3,MacIntel,60,,,,,,,,,,,,0,0,Hand,h,RT,0,0,12,0,1,1,1.190017657,1,h,1,0.550635,12,0,12,0,1,,,,,,,,,,,,,,,,,,,,,,,,,,,,,,,,,,,,,,,,,,,,,,,,,,,,,,,,,,,,,,,,,,,,,,,,
,,,,,,,,,,,,,,,2,1,2020-12-07_09h28.06.760,Context_Learning_Pilot,2020.1.3,MacIntel,60,,,,,,,,,,,,0,0,Hand,h,RT,0,0,13,0,1,1,0.882097237,1,h,1,0.43977,13,0,13,0,1,,,,,,,,,,,,,,,,,,,,,,,,,,,,,,,,,,,,,,,,,,,,,,,,,,,,,,,,,,,,,,,,,,,,,,,,
,,,,,,,,,,,,,,,2,1,2020-12-07_09h28.06.760,Context_Learning_Pilot,2020.1.3,MacIntel,60,,,,,,,,,,,,3,0,Hand,l,RT,0,0,14,0,1,1,1.096467567,1,l,1,0.5106,14,0,14,0,1,,,,,,,,,,,,,,,,,,,,,,,,,,,,,,,,,,,,,,,,,,,,,,,,,,,,,,,,,,,,,,,,,,,,,,,,
,,,,,,,,,,,,,,,2,1,2020-12-07_09h28.06.760,Context_Learning_Pilot,2020.1.3,MacIntel,60,,,,,,,,,,,,3,0,Hand,l,RT,0,0,15,0,1,1,0.108593722,1,l,1,0.44116,15,0,15,0,1,,,,,,,,,,,,,,,,,,,,,,,,,,,,,,,,,,,,,,,,,,,,,,,,,,,,,,,,,,,,,,,,,,,,,,,,
,,,,,,,,,,,,,,,2,1,2020-12-07_09h28.06.760,Context_Learning_Pilot,2020.1.3,MacIntel,60,,,,,,,,,,,,3,0,Hand,l,RT,0,0,16,0,1,1,0.567575481,1,l,1,0.501395,16,0,16,0,1,,,,,,,,,,,,,,,,,,,,,,,,,,,,,,,,,,,,,,,,,,,,,,,,,,,,,,,,,,,,,,,,,,,,,,,,
,,,,,,,,,,,,,,,2,1,2020-12-07_09h28.06.760,Context_Learning_Pilot,2020.1.3,MacIntel,60,,,,,,,,,,,,1,0,Hand,u,RT,0,0,17,0,1,1,0.423328216,1,u,1,0.523155,17,0,17,0,1,,,,,,,,,,,,,,,,,,,,,,,,,,,,,,,,,,,,,,,,,,,,,,,,,,,,,,,,,,,,,,,,,,,,,,,,
,,,,,,,,,,,,,,,2,1,2020-12-07_09h28.06.760,Context_Learning_Pilot,2020.1.3,MacIntel,60,,,,,,,,,,,,2,0,Hand,i,RT,0,0,18,0,1,1,0.142918861,1,i,1,0.52197,18,0,18,0,1,,,,,,,,,,,,,,,,,,,,,,,,,,,,,,,,,,,,,,,,,,,,,,,,,,,,,,,,,,,,,,,,,,,,,,,,
,,,,,,,,,,,,,,,2,1,2020-12-07_09h28.06.760,Context_Learning_Pilot,2020.1.3,MacIntel,60,,,,,,,,,,,,0,0,Hand,h,RT,0,0,19,0,1,1,0.239095165,1,h,1,0.606625,19,0,19,0,1,,,,,,,,,,,,,,,,,,,,,,,,,,,,,,,,,,,,,,,,,,,,,,,,,,,,,,,,,,,,,,,,,,,,,,,,
,,,,,,,,,,,,,,,2,1,2020-12-07_09h28.06.760,Context_Learning_Pilot,2020.1.3,MacIntel,60,,,,,,,,,,,,1,0,Hand,u,RT,0,0,20,0,1,1,0.324538556,1,u,1,0.513915,20,0,20,0,1,,,,,,,,,,,,,,,,,,,,,,,,,,,,,,,,,,,,,,,,,,,,,,,,,,,,,,,,,,,,,,,,,,,,,,,,
,,,,,,,,,,,,,,,2,1,2020-12-07_09h28.06.760,Context_Learning_Pilot,2020.1.3,MacIntel,60,,,,,,,,,,,,0,0,Hand,h,RT,0,0,21,0,1,1,0.656316953,1,h,1,0.43161,21,0,21,0,1,,,,,,,,,,,,,,,,,,,,,,,,,,,,,,,,,,,,,,,,,,,,,,,,,,,,,,,,,,,,,,,,,,,,,,,,
,,,,,,,,,,,,,,,2,1,2020-12-07_09h28.06.760,Context_Learning_Pilot,2020.1.3,MacIntel,60,,,,,,,,,,,,3,0,Hand,l,RT,0,0,22,0,1,1,0.716851524,1,l,1,0.45127,22,0,22,0,1,,,,,,,,,,,,,,,,,,,,,,,,,,,,,,,,,,,,,,,,,,,,,,,,,,,,,,,,,,,,,,,,,,,,,,,,
,,,,,,,,,,,,,,,2,1,2020-12-07_09h28.06.760,Context_Learning_Pilot,2020.1.3,MacIntel,60,,,,,,,,,,,,1,0,Hand,u,RT,0,0,23,0,1,1,0.954606397,1,u,1,0.45662,23,0,23,0,1,,,,,,,,,,,,,,,,,,,,,,,,,,,,,,,,,,,,,,,,,,,,,,,,,,,,,,,,,,,,,,,,,,,,,,,,
,,,,,,,,,,,,,,,2,1,2020-12-07_09h28.06.760,Context_Learning_Pilot,2020.1.3,MacIntel,60,,,,,,,,,,,,1,0,Hand,u,TR,0,0,0,0,1,1,0.996945477,1,,,,,,,,,h,13.55868,h,2.023215,u,1,1.71534,0,0,0,0,1,,,,,,,,,,,,,,,,,,,,,,,,,,,,,,,,,,,,,,,,,,,,,,,,,,,,,,,,,,,,
,,,,,,,,,,,,,,,2,1,2020-12-07_09h28.06.760,Context_Learning_Pilot,2020.1.3,MacIntel,60,,,,,,,,,,,,,,,,,,,,,,,,,,,,,,,,,,,,,,,,,,,,,0,0,0,0,1,,,,,,,,,,,,,,,,,,,,,,,,,,,,,,,,,,,,,,,,,,,,,,,,,,,,,,,
,,,,,,,,,,,,,,,2,1,2020-12-07_09h28.06.760,Context_Learning_Pilot,2020.1.3,MacIntel,60,,,,,,,,,,,,2,0,Hand,i,TR,0,0,1,0,1,1,0.716911905,1,,,,,,,,,,,,,i,1,1.438245,0,0,0,0,1,,,,,,,,,,,,,,,,,,,,,,,,,,,,,,,,,,,,,,,,,,,,,,,,,,,,,,,,,,,,
,,,,,,,,,,,,,,,2,1,2020-12-07_09h28.06.760,Context_Learning_Pilot,2020.1.3,MacIntel,60,,,,,,,,,,,,,,,,,,,,,,,,,,,,,,,,,,,,,,,,,,,,,1,0,1,0,1,,,,,,,,,,,,,,,,,,,,,,,,,,,,,,,,,,,,,,,,,,,,,,,,,,,,,,,
,,,,,,,,,,,,,,,2,1,2020-12-07_09h28.06.760,Context_Learning_Pilot,2020.1.3,MacIntel,60,,,,,,,,,,,,3,0,Hand,l,TR,0,0,2,0,1,1,0.166139551,1,,,,,,,,,,,,,l,1,1.721395,0,0,0,0,1,,,,,,,,,,,,,,,,,,,,,,,,,,,,,,,,,,,,,,,,,,,,,,,,,,,,,,,,,,,,
,,,,,,,,,,,,,,,2,1,2020-12-07_09h28.06.760,Context_Learning_Pilot,2020.1.3,MacIntel,60,,,,,,,,,,,,,,,,,,,,,,,,,,,,,,,,,,,,,,,,,,,,,2,0,2,0,1,,,,,,,,,,,,,,,,,,,,,,,,,,,,,,,,,,,,,,,,,,,,,,,,,,,,,,,
,,,,,,,,,,,,,,,2,1,2020-12-07_09h28.06.760,Context_Learning_Pilot,2020.1.3,MacIntel,60,,,,,,,,,,,,2,0,Hand,i,TR,0,0,3,0,1,1,0.879673867,1,,,,,,,,,,,,,i,1,1.564245,0,0,0,0,1,,,,,,,,,,,,,,,,,,,,,,,,,,,,,,,,,,,,,,,,,,,,,,,,,,,,,,,,,,,,
,,,,,,,,,,,,,,,2,1,2020-12-07_09h28.06.760,Context_Learning_Pilot,2020.1.3,MacIntel,60,,,,,,,,,,,,,,,,,,,,,,,,,,,,,,,,,,,,,,,,,,,,,3,0,3,0,1,,,,,,,,,,,,,,,,,,,,,,,,,,,,,,,,,,,,,,,,,,,,,,,,,,,,,,,
,,,,,,,,,,,,,,,2,1,2020-12-07_09h28.06.760,Context_Learning_Pilot,2020.1.3,MacIntel,60,,,,,,,,,,,,0,0,Hand,h,TR,0,0,4,0,1,1,0.726852115,1,,,,,,,,,,,,,h,1,1.536035,0,0,0,0,1,,,,,,,,,,,,,,,,,,,,,,,,,,,,,,,,,,,,,,,,,,,,,,,,,,,,,,,,,,,,
,,,,,,,,,,,,,,,2,1,2020-12-07_09h28.06.760,Context_Learning_Pilot,2020.1.3,MacIntel,60,,,,,,,,,,,,,,,,,,,,,,,,,,,,,,,,,,,,,,,,,,,,,4,0,4,0,1,,,,,,,,,,,,,,,,,,,,,,,,,,,,,,,,,,,,,,,,,,,,,,,,,,,,,,,
,,,,,,,,,,,,,,,2,1,2020-12-07_09h28.06.760,Context_Learning_Pilot,2020.1.3,MacIntel,60,,,,,,,,,,,,3,0,Hand,l,TR,0,0,5,0,1,1,1.228597209,1,,,,,,,,,,,,,l,1,1.57143,0,0,0,0,1,,,,,,,,,,,,,,,,,,,,,,,,,,,,,,,,,,,,,,,,,,,,,,,,,,,,,,,,,,,,
,,,,,,,,,,,,,,,2,1,2020-12-07_09h28.06.760,Context_Learning_Pilot,2020.1.3,MacIntel,60,,,,,,,,,,,,,,,,,,,,,,,,,,,,,,,,,,,,,,,,,,,,,5,0,5,0,1,,,,,,,,,,,,,,,,,,,,,,,,,,,,,,,,,,,,,,,,,,,,,,,,,,,,,,,
,,,,,,,,,,,,,,,2,1,2020-12-07_09h28.06.760,Context_Learning_Pilot,2020.1.3,MacIntel,60,,,,,,,,,,,,1,0,Hand,u,TR,0,0,6,0,1,1,1.022126806,1,,,,,,,,,,,,,u,1,1.549535,0,0,0,0,1,,,,,,,,,,,,,,,,,,,,,,,,,,,,,,,,,,,,,,,,,,,,,,,,,,,,,,,,,,,,
,,,,,,,,,,,,,,,2,1,2020-12-07_09h28.06.760,Context_Learning_Pilot,2020.1.3,MacIntel,60,,,,,,,,,,,,,,,,,,,,,,,,,,,,,,,,,,,,,,,,,,,,,6,0,6,0,1,,,,,,,,,,,,,,,,,,,,,,,,,,,,,,,,,,,,,,,,,,,,,,,,,,,,,,,
,,,,,,,,,,,,,,,2,1,2020-12-07_09h28.06.760,Context_Learning_Pilot,2020.1.3,MacIntel,60,,,,,,,,,,,,0,0,Hand,h,TR,0,0,7,0,1,1,0.422461258,1,,,,,,,,,,,,,h,1,1.523265,0,0,0,0,1,,,,,,,,,,,,,,,,,,,,,,,,,,,,,,,,,,,,,,,,,,,,,,,,,,,,,,,,,,,,
,,,,,,,,,,,,,,,2,1,2020-12-07_09h28.06.760,Context_Learning_Pilot,2020.1.3,MacIntel,60,,,,,,,,,,,,,,,,,,,,,,,,,,,,,,,,,,,,,,,,,,,,,7,0,7,0,1,,,,,,,,,,,,,,,,,,,,,,,,,,,,,,,,,,,,,,,,,,,,,,,,,,,,,,,
,,,,,,,,,,,,,,,2,1,2020-12-07_09h28.06.760,Context_Learning_Pilot,2020.1.3,MacIntel,60,,,,,,,,,,,,3,0,Hand,l,TR,0,0,8,0,1,1,0.934678253,1,,,,,,,,,,,,,l,1,1.588715,0,0,0,0,1,,,,,,,,,,,,,,,,,,,,,,,,,,,,,,,,,,,,,,,,,,,,,,,,,,,,,,,,,,,,
,,,,,,,,,,,,,,,2,1,2020-12-07_09h28.06.760,Context_Learning_Pilot,2020.1.3,MacIntel,60,,,,,,,,,,,,,,,,,,,,,,,,,,,,,,,,,,,,,,,,,,,,,8,0,8,0,1,,,,,,,,,,,,,,,,,,,,,,,,,,,,,,,,,,,,,,,,,,,,,,,,,,,,,,,
,,,,,,,,,,,,,,,2,1,2020-12-07_09h28.06.760,Context_Learning_Pilot,2020.1.3,MacIntel,60,,,,,,,,,,,,0,0,Hand,h,TR,0,0,9,0,1,1,1.146749484,1,,,,,,,,,,,,,h,1,1.674615,0,0,0,0,1,,,,,,,,,,,,,,,,,,,,,,,,,,,,,,,,,,,,,,,,,,,,,,,,,,,,,,,,,,,,
,,,,,,,,,,,,,,,2,1,2020-12-07_09h28.06.760,Context_Learning_Pilot,2020.1.3,MacIntel,60,,,,,,,,,,,,,,,,,,,,,,,,,,,,,,,,,,,,,,,,,,,,,9,0,9,0,1,,,,,,,,,,,,,,,,,,,,,,,,,,,,,,,,,,,,,,,,,,,,,,,,,,,,,,,
,,,,,,,,,,,,,,,2,1,2020-12-07_09h28.06.760,Context_Learning_Pilot,2020.1.3,MacIntel,60,,,,,,,,,,,,0,0,Hand,h,TR,0,0,10,0,1,1,0.254963575,1,,,,,,,,,,,,,h,1,1.61135,0,0,0,0,1,,,,,,,,,,,,,,,,,,,,,,,,,,,,,,,,,,,,,,,,,,,,,,,,,,,,,,,,,,,,
,,,,,,,,,,,,,,,2,1,2020-12-07_09h28.06.760,Context_Learning_Pilot,2020.1.3,MacIntel,60,,,,,,,,,,,,,,,,,,,,,,,,,,,,,,,,,,,,,,,,,,,,,10,0,10,0,1,,,,,,,,,,,,,,,,,,,,,,,,,,,,,,,,,,,,,,,,,,,,,,,,,,,,,,,
,,,,,,,,,,,,,,,2,1,2020-12-07_09h28.06.760,Context_Learning_Pilot,2020.1.3,MacIntel,60,,,,,,,,,,,,1,0,Hand,u,TR,0,0,11,0,1,1,0.316745597,1,,,,,,,,,,,,,i,0,1.6137,0,0,0,0,1,,,,,,,,,,,,,,,,,,,,,,,,,,,,,,,,,,,,,,,,,,,,,,,,,,,,,,,,,,,,
,,,,,,,,,,,,,,,2,1,2020-12-07_09h28.06.760,Context_Learning_Pilot,2020.1.3,MacIntel,60,,,,,,,,,,,,,,,,,,,,,,,,,,,,,,,,,,,,,,,,,,,,,11,0,11,0,1,,,,,,,,,,,,,,,,,,,,,,,,,,,,,,,,,,,,,,,,,,,,,,,,,,,,,,,
,,,,,,,,,,,,,,,2,1,2020-12-07_09h28.06.760,Context_Learning_Pilot,2020.1.3,MacIntel,60,,,,,,,,,,,,1,0,Hand,u,TR,0,0,12,0,1,1,0.787768933,1,,,,,,,,,,,,,u,1,1.49786,0,0,0,0,1,,,,,,,,,,,,,,,,,,,,,,,,,,,,,,,,,,,,,,,,,,,,,,,,,,,,,,,,,,,,
,,,,,,,,,,,,,,,2,1,2020-12-07_09h28.06.760,Context_Learning_Pilot,2020.1.3,MacIntel,60,,,,,,,,,,,,,,,,,,,,,,,,,,,,,,,,,,,,,,,,,,,,,12,0,12,0,1,,,,,,,,,,,,,,,,,,,,,,,,,,,,,,,,,,,,,,,,,,,,,,,,,,,,,,,
,,,,,,,,,,,,,,,2,1,2020-12-07_09h28.06.760,Context_Learning_Pilot,2020.1.3,MacIntel,60,,,,,,,,,,,,2,0,Hand,i,TR,0,0,13,0,1,1,0.623762676,1,,,,,,,,,,,,,i,1,1.626355,0,0,0,0,1,,,,,,,,,,,,,,,,,,,,,,,,,,,,,,,,,,,,,,,,,,,,,,,,,,,,,,,,,,,,
,,,,,,,,,,,,,,,2,1,2020-12-07_09h28.06.760,Context_Learning_Pilot,2020.1.3,MacIntel,60,,,,,,,,,,,,,,,,,,,,,,,,,,,,,,,,,,,,,,,,,,,,,13,0,13,0,1,,,,,,,,,,,,,,,,,,,,,,,,,,,,,,,,,,,,,,,,,,,,,,,,,,,,,,,
,,,,,,,,,,,,,,,2,1,2020-12-07_09h28.06.760,Context_Learning_Pilot,2020.1.3,MacIntel,60,,,,,,,,,,,,2,0,Hand,i,TR,0,0,14,0,1,1,0.458331657,1,,,,,,,,,,,,,i,1,1.68408,0,0,0,0,1,,,,,,,,,,,,,,,,,,,,,,,,,,,,,,,,,,,,,,,,,,,,,,,,,,,,,,,,,,,,
,,,,,,,,,,,,,,,2,1,2020-12-07_09h28.06.760,Context_Learning_Pilot,2020.1.3,MacIntel,60,,,,,,,,,,,,,,,,,,,,,,,,,,,,,,,,,,,,,,,,,,,,,14,0,14,0,1,,,,,,,,,,,,,,,,,,,,,,,,,,,,,,,,,,,,,,,,,,,,,,,,,,,,,,,
,,,,,,,,,,,,,,,2,1,2020-12-07_09h28.06.760,Context_Learning_Pilot,2020.1.3,MacIntel,60,,,,,,,,,,,,3,0,Hand,l,TR,0,0,15,0,1,1,0.2276489,1,,,,,,,,,,,,,l,1,1.599395,0,0,0,0,1,,,,,,,,,,,,,,,,,,,,,,,,,,,,,,,,,,,,,,,,,,,,,,,,,,,,,,,,,,,,
,,,,,,,,,,,,,,,2,1,2020-12-07_09h28.06.760,Context_Learning_Pilot,2020.1.3,MacIntel,60,,,,,,,,,,,,,,,,,,,,,,,,,,,,,,,,,,,,,,,,,,,,,15,0,15,0,1,,,,,,,,,,,,,,,,,,,,,,,,,,,,,,,,,,,,,,,,,,,,,,,,,,,,,,,
,,,,,,,,,,,,,,,2,1,2020-12-07_09h28.06.760,Context_Learning_Pilot,2020.1.3,MacIntel,60,,,,,,,,,,,,1,0,Hand,u,TR,0,0,16,0,1,1,0.755063496,1,,,,,,,,,,,,,u,1,1.421185,0,0,0,0,1,,,,,,,,,,,,,,,,,,,,,,,,,,,,,,,,,,,,,,,,,,,,,,,,,,,,,,,,,,,,
,,,,,,,,,,,,,,,2,1,2020-12-07_09h28.06.760,Context_Learning_Pilot,2020.1.3,MacIntel,60,,,,,,,,,,,,,,,,,,,,,,,,,,,,,,,,,,,,,,,,,,,,,16,0,16,0,1,,,,,,,,,,,,,,,,,,,,,,,,,,,,,,,,,,,,,,,,,,,,,,,,,,,,,,,
,,,,,,,,,,,,,,,2,1,2020-12-07_09h28.06.760,Context_Learning_Pilot,2020.1.3,MacIntel,60,,,,,,,,,,,,0,0,Hand,h,TR,0,0,17,0,1,1,0.565973534,1,,,,,,,,,,,,,h,1,1.595515,0,0,0,0,1,,,,,,,,,,,,,,,,,,,,,,,,,,,,,,,,,,,,,,,,,,,,,,,,,,,,,,,,,,,,
,,,,,,,,,,,,,,,2,1,2020-12-07_09h28.06.760,Context_Learning_Pilot,2020.1.3,MacIntel,60,,,,,,,,,,,,,,,,,,,,,,,,,,,,,,,,,,,,,,,,,,,,,17,0,17,0,1,,,,,,,,,,,,,,,,,,,,,,,,,,,,,,,,,,,,,,,,,,,,,,,,,,,,,,,
,,,,,,,,,,,,,,,2,1,2020-12-07_09h28.06.760,Context_Learning_Pilot,2020.1.3,MacIntel,60,,,,,,,,,,,,3,0,Hand,l,TR,0,0,18,0,1,1,1.040475255,1,,,,,,,,,,,,,l,1,1.57455,0,0,0,0,1,,,,,,,,,,,,,,,,,,,,,,,,,,,,,,,,,,,,,,,,,,,,,,,,,,,,,,,,,,,,
,,,,,,,,,,,,,,,2,1,2020-12-07_09h28.06.760,Context_Learning_Pilot,2020.1.3,MacIntel,60,,,,,,,,,,,,,,,,,,,,,,,,,,,,,,,,,,,,,,,,,,,,,18,0,18,0,1,,,,,,,,,,,,,,,,,,,,,,,,,,,,,,,,,,,,,,,,,,,,,,,,,,,,,,,
,,,,,,,,,,,,,,,2,1,2020-12-07_09h28.06.760,Context_Learning_Pilot,2020.1.3,MacIntel,60,,,,,,,,,,,,2,0,Hand,i,TR,0,0,19,0,1,1,0.785950343,1,,,,,,,,,,,,,i,1,1.61763,0,0,0,0,1,,,,,,,,,,,,,,,,,,,,,,,,,,,,,,,,,,,,,,,,,,,,,,,,,,,,,,,,,,,,
,,,,,,,,,,,,,,,2,1,2020-12-07_09h28.06.760,Context_Learning_Pilot,2020.1.3,MacIntel,60,,,,,,,,,,,,,,,,,,,,,,,,,,,,,,,,,,,,,,,,,,,,,19,0,19,0,1,,,,,,,,,,,,,,,,,,,,,,,,,,,,,,,,,,,,,,,,,,,,,,,,,,,,,,,
,,,,,,,,,,,,,,,2,1,2020-12-07_09h28.06.760,Context_Learning_Pilot,2020.1.3,MacIntel,60,,,,,,,,,,,,0,0,Hand,h,TR,0,0,20,0,1,1,0.585068864,1,,,,,,,,,,,,,h,1,1.62207,0,0,0,0,1,,,,,,,,,,,,,,,,,,,,,,,,,,,,,,,,,,,,,,,,,,,,,,,,,,,,,,,,,,,,
,,,,,,,,,,,,,,,2,1,2020-12-07_09h28.06.760,Context_Learning_Pilot,2020.1.3,MacIntel,60,,,,,,,,,,,,,,,,,,,,,,,,,,,,,,,,,,,,,,,,,,,,,20,0,20,0,1,,,,,,,,,,,,,,,,,,,,,,,,,,,,,,,,,,,,,,,,,,,,,,,,,,,,,,,
,,,,,,,,,,,,,,,2,1,2020-12-07_09h28.06.760,Context_Learning_Pilot,2020.1.3,MacIntel,60,,,,,,,,,,,,1,0,Hand,u,TR,0,0,21,0,1,1,0.002940229,1,,,,,,,,,,,,,h,0,1.606975,0,0,0,0,1,,,,,,,,,,,,,,,,,,,,,,,,,,,,,,,,,,,,,,,,,,,,,,,,,,,,,,,,,,,,
,,,,,,,,,,,,,,,2,1,2020-12-07_09h28.06.760,Context_Learning_Pilot,2020.1.3,MacIntel,60,,,,,,,,,,,,,,,,,,,,,,,,,,,,,,,,,,,,,,,,,,,,,21,0,21,0,1,,,,,,,,,,,,,,,,,,,,,,,,,,,,,,,,,,,,,,,,,,,,,,,,,,,,,,,
,,,,,,,,,,,,,,,2,1,2020-12-07_09h28.06.760,Context_Learning_Pilot,2020.1.3,MacIntel,60,,,,,,,,,,,,3,0,Hand,l,TR,0,0,22,0,1,1,0.569313996,1,,,,,,,,,,,,,l,1,1.6746,0,0,0,0,1,,,,,,,,,,,,,,,,,,,,,,,,,,,,,,,,,,,,,,,,,,,,,,,,,,,,,,,,,,,,
,,,,,,,,,,,,,,,2,1,2020-12-07_09h28.06.760,Context_Learning_Pilot,2020.1.3,MacIntel,60,,,,,,,,,,,,,,,,,,,,,,,,,,,,,,,,,,,,,,,,,,,,,22,0,22,0,1,,,,,,,,,,,,,,,,,,,,,,,,,,,,,,,,,,,,,,,,,,,,,,,,,,,,,,,
,,,,,,,,,,,,,,,2,1,2020-12-07_09h28.06.760,Context_Learning_Pilot,2020.1.3,MacIntel,60,,,,,,,,,,,,1,0,Hand,u,TR,0,0,23,0,1,1,1.013433517,1,,,,,,,,,,,,,u,1,1.668555,0,0,0,0,1,,,,,,,,,,,,,,,,,,,,,,,,,,,,,,,,,,,,,,,,,,,,,,,,,,,,,,,,,,,,
,,,,,,,,,,,,,,,2,1,2020-12-07_09h28.06.760,Context_Learning_Pilot,2020.1.3,MacIntel,60,,,,,,,,,,,,,,,,,,,,,,,,,,,,,,,,,,,,,,,,,,,,,,,,,,0,0,0,0,1,,,,,,,,,,,,,,,,,,,,,,,,,,,,,,,,,,,,,,,,,,,,,,,,,,
,,,,,,,,,,,,,,,2,1,2020-12-07_09h28.06.760,Context_Learning_Pilot,2020.1.3,MacIntel,60,,,,,,,,,,,,3,0,Hand,l,TR,0,0,0,0,1,2,0.290132585,1,,,,,,,,,,,h,1.20624,l,1,1.714645,0,0,0,0,1,,,,,,,,,,,,,,,,,,,,,,,,,,,,,,,,,,,,,,,,,,,,,,,,,,,,,,,,,,,,
,,,,,,,,,,,,,,,2,1,2020-12-07_09h28.06.760,Context_Learning_Pilot,2020.1.3,MacIntel,60,,,,,,,,,,,,,,,,,,,,,,,,,,,,,,,,,,,,,,,,,,,,,0,0,0,0,1,,,,,,,,,,,,,,,,,,,,,,,,,,,,,,,,,,,,,,,,,,,,,,,,,,,,,,,
,,,,,,,,,,,,,,,2,1,2020-12-07_09h28.06.760,Context_Learning_Pilot,2020.1.3,MacIntel,60,,,,,,,,,,,,0,0,Hand,h,TR,0,0,1,0,1,2,0.123476067,1,,,,,,,,,,,,,h,1,1.54168,0,0,0,0,1,,,,,,,,,,,,,,,,,,,,,,,,,,,,,,,,,,,,,,,,,,,,,,,,,,,,,,,,,,,,
,,,,,,,,,,,,,,,2,1,2020-12-07_09h28.06.760,Context_Learning_Pilot,2020.1.3,MacIntel,60,,,,,,,,,,,,,,,,,,,,,,,,,,,,,,,,,,,,,,,,,,,,,1,0,1,0,1,,,,,,,,,,,,,,,,,,,,,,,,,,,,,,,,,,,,,,,,,,,,,,,,,,,,,,,
,,,,,,,,,,,,,,,2,1,2020-12-07_09h28.06.760,Context_Learning_Pilot,2020.1.3,MacIntel,60,,,,,,,,,,,,3,0,Hand,l,TR,0,0,2,0,1,2,0.779100146,1,,,,,,,,,,,,,l,1,1.52782,0,0,0,0,1,,,,,,,,,,,,,,,,,,,,,,,,,,,,,,,,,,,,,,,,,,,,,,,,,,,,,,,,,,,,
,,,,,,,,,,,,,,,2,1,2020-12-07_09h28.06.760,Context_Learning_Pilot,2020.1.3,MacIntel,60,,,,,,,,,,,,,,,,,,,,,,,,,,,,,,,,,,,,,,,,,,,,,2,0,2,0,1,,,,,,,,,,,,,,,,,,,,,,,,,,,,,,,,,,,,,,,,,,,,,,,,,,,,,,,
,,,,,,,,,,,,,,,2,1,2020-12-07_09h28.06.760,Context_Learning_Pilot,2020.1.3,MacIntel,60,,,,,,,,,,,,0,0,Hand,h,TR,0,0,3,0,1,2,1.118621325,1,,,,,,,,,,,,,h,1,1.56955,0,0,0,0,1,,,,,,,,,,,,,,,,,,,,,,,,,,,,,,,,,,,,,,,,,,,,,,,,,,,,,,,,,,,,
,,,,,,,,,,,,,,,2,1,2020-12-07_09h28.06.760,Context_Learning_Pilot,2020.1.3,MacIntel,60,,,,,,,,,,,,,,,,,,,,,,,,,,,,,,,,,,,,,,,,,,,,,3,0,3,0,1,,,,,,,,,,,,,,,,,,,,,,,,,,,,,,,,,,,,,,,,,,,,,,,,,,,,,,,
,,,,,,,,,,,,,,,2,1,2020-12-07_09h28.06.760,Context_Learning_Pilot,2020.1.3,MacIntel,60,,,,,,,,,,,,1,0,Hand,u,TR,0,0,4,0,1,2,1.008040016,1,,,,,,,,,,,,,u,1,1.575975,0,0,0,0,1,,,,,,,,,,,,,,,,,,,,,,,,,,,,,,,,,,,,,,,,,,,,,,,,,,,,,,,,,,,,
,,,,,,,,,,,,,,,2,1,2020-12-07_09h28.06.760,Context_Learning_Pilot,2020.1.3,MacIntel,60,,,,,,,,,,,,,,,,,,,,,,,,,,,,,,,,,,,,,,,,,,,,,4,0,4,0,1,,,,,,,,,,,,,,,,,,,,,,,,,,,,,,,,,,,,,,,,,,,,,,,,,,,,,,,
,,,,,,,,,,,,,,,2,1,2020-12-07_09h28.06.760,Context_Learning_Pilot,2020.1.3,MacIntel,60,,,,,,,,,,,,2,0,Hand,i,TR,0,0,5,0,1,2,0.469292945,1,,,,,,,,,,,,,i,1,1.61405,0,0,0,0,1,,,,,,,,,,,,,,,,,,,,,,,,,,,,,,,,,,,,,,,,,,,,,,,,,,,,,,,,,,,,
,,,,,,,,,,,,,,,2,1,2020-12-07_09h28.06.760,Context_Learning_Pilot,2020.1.3,MacIntel,60,,,,,,,,,,,,,,,,,,,,,,,,,,,,,,,,,,,,,,,,,,,,,5,0,5,0,1,,,,,,,,,,,,,,,,,,,,,,,,,,,,,,,,,,,,,,,,,,,,,,,,,,,,,,,
,,,,,,,,,,,,,,,2,1,2020-12-07_09h28.06.760,Context_Learning_Pilot,2020.1.3,MacIntel,60,,,,,,,,,,,,1,0,Hand,u,TR,0,0,6,0,1,2,0.911832556,1,,,,,,,,,,,,,u,1,1.6168,0,0,0,0,1,,,,,,,,,,,,,,,,,,,,,,,,,,,,,,,,,,,,,,,,,,,,,,,,,,,,,,,,,,,,
,,,,,,,,,,,,,,,2,1,2020-12-07_09h28.06.760,Context_Learning_Pilot,2020.1.3,MacIntel,60,,,,,,,,,,,,,,,,,,,,,,,,,,,,,,,,,,,,,,,,,,,,,6,0,6,0,1,,,,,,,,,,,,,,,,,,,,,,,,,,,,,,,,,,,,,,,,,,,,,,,,,,,,,,,
,,,,,,,,,,,,,,,2,1,2020-12-07_09h28.06.760,Context_Learning_Pilot,2020.1.3,MacIntel,60,,,,,,,,,,,,2,0,Hand,i,TR,0,0,7,0,1,2,0.464466155,1,,,,,,,,,,,,,i,1,1.67282,0,0,0,0,1,,,,,,,,,,,,,,,,,,,,,,,,,,,,,,,,,,,,,,,,,,,,,,,,,,,,,,,,,,,,
,,,,,,,,,,,,,,,2,1,2020-12-07_09h28.06.760,Context_Learning_Pilot,2020.1.3,MacIntel,60,,,,,,,,,,,,,,,,,,,,,,,,,,,,,,,,,,,,,,,,,,,,,7,0,7,0,1,,,,,,,,,,,,,,,,,,,,,,,,,,,,,,,,,,,,,,,,,,,,,,,,,,,,,,,
,,,,,,,,,,,,,,,2,1,2020-12-07_09h28.06.760,Context_Learning_Pilot,2020.1.3,MacIntel,60,,,,,,,,,,,,2,0,Hand,i,TR,0,0,8,0,1,2,0.315075558,1,,,,,,,,,,,,,i,1,1.66663,0,0,0,0,1,,,,,,,,,,,,,,,,,,,,,,,,,,,,,,,,,,,,,,,,,,,,,,,,,,,,,,,,,,,,
,,,,,,,,,,,,,,,2,1,2020-12-07_09h28.06.760,Context_Learning_Pilot,2020.1.3,MacIntel,60,,,,,,,,,,,,,,,,,,,,,,,,,,,,,,,,,,,,,,,,,,,,,8,0,8,0,1,,,,,,,,,,,,,,,,,,,,,,,,,,,,,,,,,,,,,,,,,,,,,,,,,,,,,,,
,,,,,,,,,,,,,,,2,1,2020-12-07_09h28.06.760,Context_Learning_Pilot,2020.1.3,MacIntel,60,,,,,,,,,,,,3,0,Hand,l,TR,0,0,9,0,1,2,1.254178833,1,,,,,,,,,,,,,l,1,1.610415,0,0,0,0,1,,,,,,,,,,,,,,,,,,,,,,,,,,,,,,,,,,,,,,,,,,,,,,,,,,,,,,,,,,,,
,,,,,,,,,,,,,,,2,1,2020-12-07_09h28.06.760,Context_Learning_Pilot,2020.1.3,MacIntel,60,,,,,,,,,,,,,,,,,,,,,,,,,,,,,,,,,,,,,,,,,,,,,9,0,9,0,1,,,,,,,,,,,,,,,,,,,,,,,,,,,,,,,,,,,,,,,,,,,,,,,,,,,,,,,
,,,,,,,,,,,,,,,2,1,2020-12-07_09h28.06.760,Context_Learning_Pilot,2020.1.3,MacIntel,60,,,,,,,,,,,,1,0,Hand,u,TR,0,0,10,0,1,2,1.291651261,1,,,,,,,,,,,,,u,1,1.623725,0,0,0,0,1,,,,,,,,,,,,,,,,,,,,,,,,,,,,,,,,,,,,,,,,,,,,,,,,,,,,,,,,,,,,
,,,,,,,,,,,,,,,2,1,2020-12-07_09h28.06.760,Context_Learning_Pilot,2020.1.3,MacIntel,60,,,,,,,,,,,,,,,,,,,,,,,,,,,,,,,,,,,,,,,,,,,,,10,0,10,0,1,,,,,,,,,,,,,,,,,,,,,,,,,,,,,,,,,,,,,,,,,,,,,,,,,,,,,,,
,,,,,,,,,,,,,,,2,1,2020-12-07_09h28.06.760,Context_Learning_Pilot,2020.1.3,MacIntel,60,,,,,,,,,,,,1,0,Hand,u,TR,0,0,11,0,1,2,0.243746183,1,,,,,,,,,,,,,i,0,1.579225,0,0,0,0,1,,,,,,,,,,,,,,,,,,,,,,,,,,,,,,,,,,,,,,,,,,,,,,,,,,,,,,,,,,,,
,,,,,,,,,,,,,,,2,1,2020-12-07_09h28.06.760,Context_Learning_Pilot,2020.1.3,MacIntel,60,,,,,,,,,,,,,,,,,,,,,,,,,,,,,,,,,,,,,,,,,,,,,11,0,11,0,1,,,,,,,,,,,,,,,,,,,,,,,,,,,,,,,,,,,,,,,,,,,,,,,,,,,,,,,
,,,,,,,,,,,,,,,2,1,2020-12-07_09h28.06.760,Context_Learning_Pilot,2020.1.3,MacIntel,60,,,,,,,,,,,,0,0,Hand,h,TR,0,0,12,0,1,2,0.317107688,1,,,,,,,,,,,,,h,1,1.57023,0,0,0,0,1,,,,,,,,,,,,,,,,,,,,,,,,,,,,,,,,,,,,,,,,,,,,,,,,,,,,,,,,,,,,
,,,,,,,,,,,,,,,2,1,2020-12-07_09h28.06.760,Context_Learning_Pilot,2020.1.3,MacIntel,60,,,,,,,,,,,,,,,,,,,,,,,,,,,,,,,,,,,,,,,,,,,,,12,0,12,0,1,,,,,,,,,,,,,,,,,,,,,,,,,,,,,,,,,,,,,,,,,,,,,,,,,,,,,,,
,,,,,,,,,,,,,,,2,1,2020-12-07_09h28.06.760,Context_Learning_Pilot,2020.1.3,MacIntel,60,,,,,,,,,,,,2,0,Hand,i,TR,0,0,13,0,1,2,0.531690915,1,,,,,,,,,,,,,i,1,1.611395,0,0,0,0,1,,,,,,,,,,,,,,,,,,,,,,,,,,,,,,,,,,,,,,,,,,,,,,,,,,,,,,,,,,,,
,,,,,,,,,,,,,,,2,1,2020-12-07_09h28.06.760,Context_Learning_Pilot,2020.1.3,MacIntel,60,,,,,,,,,,,,,,,,,,,,,,,,,,,,,,,,,,,,,,,,,,,,,13,0,13,0,1,,,,,,,,,,,,,,,,,,,,,,,,,,,,,,,,,,,,,,,,,,,,,,,,,,,,,,,
,,,,,,,,,,,,,,,2,1,2020-12-07_09h28.06.760,Context_Learning_Pilot,2020.1.3,MacIntel,60,,,,,,,,,,,,3,0,Hand,l,TR,0,0,14,0,1,2,0.50106626,1,,,,,,,,,,,,,l,1,1.583665,0,0,0,0,1,,,,,,,,,,,,,,,,,,,,,,,,,,,,,,,,,,,,,,,,,,,,,,,,,,,,,,,,,,,,
,,,,,,,,,,,,,,,2,1,2020-12-07_09h28.06.760,Context_Learning_Pilot,2020.1.3,MacIntel,60,,,,,,,,,,,,,,,,,,,,,,,,,,,,,,,,,,,,,,,,,,,,,14,0,14,0,1,,,,,,,,,,,,,,,,,,,,,,,,,,,,,,,,,,,,,,,,,,,,,,,,,,,,,,,
,,,,,,,,,,,,,,,2,1,2020-12-07_09h28.06.760,Context_Learning_Pilot,2020.1.3,MacIntel,60,,,,,,,,,,,,0,0,Hand,h,TR,0,0,15,0,1,2,0.733247916,1,,,,,,,,,,,,,h,1,1.60715,0,0,0,0,1,,,,,,,,,,,,,,,,,,,,,,,,,,,,,,,,,,,,,,,,,,,,,,,,,,,,,,,,,,,,
,,,,,,,,,,,,,,,2,1,2020-12-07_09h28.06.760,Context_Learning_Pilot,2020.1.3,MacIntel,60,,,,,,,,,,,,,,,,,,,,,,,,,,,,,,,,,,,,,,,,,,,,,15,0,15,0,1,,,,,,,,,,,,,,,,,,,,,,,,,,,,,,,,,,,,,,,,,,,,,,,,,,,,,,,
,,,,,,,,,,,,,,,2,1,2020-12-07_09h28.06.760,Context_Learning_Pilot,2020.1.3,MacIntel,60,,,,,,,,,,,,0,0,Hand,h,TR,0,0,16,0,1,2,1.142795623,1,,,,,,,,,,,,,h,1,1.62312,0,0,0,0,1,,,,,,,,,,,,,,,,,,,,,,,,,,,,,,,,,,,,,,,,,,,,,,,,,,,,,,,,,,,,
,,,,,,,,,,,,,,,2,1,2020-12-07_09h28.06.760,Context_Learning_Pilot,2020.1.3,MacIntel,60,,,,,,,,,,,,,,,,,,,,,,,,,,,,,,,,,,,,,,,,,,,,,16,0,16,0,1,,,,,,,,,,,,,,,,,,,,,,,,,,,,,,,,,,,,,,,,,,,,,,,,,,,,,,,
,,,,,,,,,,,,,,,2,1,2020-12-07_09h28.06.760,Context_Learning_Pilot,2020.1.3,MacIntel,60,,,,,,,,,,,,1,0,Hand,u,TR,0,0,17,0,1,2,0.443741731,1,,,,,,,,,,,,,u,1,1.633425,0,0,0,0,1,,,,,,,,,,,,,,,,,,,,,,,,,,,,,,,,,,,,,,,,,,,,,,,,,,,,,,,,,,,,
,,,,,,,,,,,,,,,2,1,2020-12-07_09h28.06.760,Context_Learning_Pilot,2020.1.3,MacIntel,60,,,,,,,,,,,,,,,,,,,,,,,,,,,,,,,,,,,,,,,,,,,,,17,0,17,0,1,,,,,,,,,,,,,,,,,,,,,,,,,,,,,,,,,,,,,,,,,,,,,,,,,,,,,,,
,,,,,,,,,,,,,,,2,1,2020-12-07_09h28.06.760,Context_Learning_Pilot,2020.1.3,MacIntel,60,,,,,,,,,,,,2,0,Hand,i,TR,0,0,18,0,1,2,0.438277295,1,,,,,,,,,,,,,i,1,1.505665,0,0,0,0,1,,,,,,,,,,,,,,,,,,,,,,,,,,,,,,,,,,,,,,,,,,,,,,,,,,,,,,,,,,,,
,,,,,,,,,,,,,,,2,1,2020-12-07_09h28.06.760,Context_Learning_Pilot,2020.1.3,MacIntel,60,,,,,,,,,,,,,,,,,,,,,,,,,,,,,,,,,,,,,,,,,,,,,18,0,18,0,1,,,,,,,,,,,,,,,,,,,,,,,,,,,,,,,,,,,,,,,,,,,,,,,,,,,,,,,
,,,,,,,,,,,,,,,2,1,2020-12-07_09h28.06.760,Context_Learning_Pilot,2020.1.3,MacIntel,60,,,,,,,,,,,,3,0,Hand,l,TR,0,0,19,0,1,2,1.071613054,1,,,,,,,,,,,,,l,1,1.555225,0,0,0,0,1,,,,,,,,,,,,,,,,,,,,,,,,,,,,,,,,,,,,,,,,,,,,,,,,,,,,,,,,,,,,
,,,,,,,,,,,,,,,2,1,2020-12-07_09h28.06.760,Context_Learning_Pilot,2020.1.3,MacIntel,60,,,,,,,,,,,,,,,,,,,,,,,,,,,,,,,,,,,,,,,,,,,,,19,0,19,0,1,,,,,,,,,,,,,,,,,,,,,,,,,,,,,,,,,,,,,,,,,,,,,,,,,,,,,,,
,,,,,,,,,,,,,,,2,1,2020-12-07_09h28.06.760,Context_Learning_Pilot,2020.1.3,MacIntel,60,,,,,,,,,,,,3,0,Hand,l,TR,0,0,20,0,1,2,1.288500396,1,,,,,,,,,,,,,l,1,1.43991,0,0,0,0,1,,,,,,,,,,,,,,,,,,,,,,,,,,,,,,,,,,,,,,,,,,,,,,,,,,,,,,,,,,,,
,,,,,,,,,,,,,,,2,1,2020-12-07_09h28.06.760,Context_Learning_Pilot,2020.1.3,MacIntel,60,,,,,,,,,,,,,,,,,,,,,,,,,,,,,,,,,,,,,,,,,,,,,20,0,20,0,1,,,,,,,,,,,,,,,,,,,,,,,,,,,,,,,,,,,,,,,,,,,,,,,,,,,,,,,
,,,,,,,,,,,,,,,2,1,2020-12-07_09h28.06.760,Context_Learning_Pilot,2020.1.3,MacIntel,60,,,,,,,,,,,,0,0,Hand,h,TR,0,0,21,0,1,2,0.12059805,1,,,,,,,,,,,,,u,0,1.7373,0,0,0,0,1,,,,,,,,,,,,,,,,,,,,,,,,,,,,,,,,,,,,,,,,,,,,,,,,,,,,,,,,,,,,
,,,,,,,,,,,,,,,2,1,2020-12-07_09h28.06.760,Context_Learning_Pilot,2020.1.3,MacIntel,60,,,,,,,,,,,,,,,,,,,,,,,,,,,,,,,,,,,,,,,,,,,,,21,0,21,0,1,,,,,,,,,,,,,,,,,,,,,,,,,,,,,,,,,,,,,,,,,,,,,,,,,,,,,,,
,,,,,,,,,,,,,,,2,1,2020-12-07_09h28.06.760,Context_Learning_Pilot,2020.1.3,MacIntel,60,,,,,,,,,,,,2,0,Hand,i,TR,0,0,22,0,1,2,0.112080844,1,,,,,,,,,,,,,i,1,1.606,0,0,0,0,1,,,,,,,,,,,,,,,,,,,,,,,,,,,,,,,,,,,,,,,,,,,,,,,,,,,,,,,,,,,,
,,,,,,,,,,,,,,,2,1,2020-12-07_09h28.06.760,Context_Learning_Pilot,2020.1.3,MacIntel,60,,,,,,,,,,,,,,,,,,,,,,,,,,,,,,,,,,,,,,,,,,,,,22,0,22,0,1,,,,,,,,,,,,,,,,,,,,,,,,,,,,,,,,,,,,,,,,,,,,,,,,,,,,,,,
,,,,,,,,,,,,,,,2,1,2020-12-07_09h28.06.760,Context_Learning_Pilot,2020.1.3,MacIntel,60,,,,,,,,,,,,3,0,Hand,l,TR,0,0,23,0,1,2,1.272754953,1,,,,,,,,,,,,,l,1,1.606505,0,0,0,0,1,,,,,,,,,,,,,,,,,,,,,,,,,,,,,,,,,,,,,,,,,,,,,,,,,,,,,,,,,,,,
,,,,,,,,,,,,,,,2,1,2020-12-07_09h28.06.760,Context_Learning_Pilot,2020.1.3,MacIntel,60,,,,,,,,,,,,0,1,Symb,u,CR,0,0,0,0,1,1,1.8,1,,,,,,,,,,,,,,,,,,,,,,,,,,,,,,,h,10.94482,media/djnb.png,h,0,1.04567,0,0,0,0,1,,,,,,,,,,,,,,,,,,,,,,,,,,,,,,,,,,,,,,,
,,,,,,,,,,,,,,,2,1,2020-12-07_09h28.06.760,Context_Learning_Pilot,2020.1.3,MacIntel,60,,,,,,,,,,,,0,1,Symb,u,CR,0,1,0,0,1,1,1.8,1,,,,,,,,,,,,,,,,,,,,,,,,,,,,,,,,,media/djnb.png,i,0,0.854545,1,0,1,0,1,,,,,,,,,,,,,,,,,,,,,,,,,,,,,,,,,,,,,,,
,,,,,,,,,,,,,,,2,1,2020-12-07_09h28.06.760,Context_Learning_Pilot,2020.1.3,MacIntel,60,,,,,,,,,,,,0,1,Symb,u,CR,0,2,0,0,1,1,1.8,1,,,,,,,,,,,,,,,,,,,,,,,,,,,,,,,,,media/djnb.png,u,1,0.4779,2,0,2,0,1,,,,,,,,,,,,,,,,,,,,,,,,,,,,,,,,,,,,,,,
,,,,,,,,,,,,,,,2,1,2020-12-07_09h28.06.760,Context_Learning_Pilot,2020.1.3,MacIntel,60,,,,,,,,,,,,1,2,Symb,l,CR,0,0,1,0,1,1,1.8,1,,,,,,,,,,,,,,,,,,,,,,,,,,,,,,,,,media/dnnb.png,l,1,2.95735,3,0,3,0,1,,,,,,,,,,,,,,,,,,,,,,,,,,,,,,,,,,,,,,,
,,,,,,,,,,,,,,,2,1,2020-12-07_09h28.06.760,Context_Learning_Pilot,2020.1.3,MacIntel,60,,,,,,,,,,,,3,1,Symb,l,CR,0,0,2,0,1,1,1.8,1,,,,,,,,,,,,,,,,,,,,,,,,,,,,,,,,,media/ddnb.png,i,0,1.41107,4,0,4,0,1,,,,,,,,,,,,,,,,,,,,,,,,,,,,,,,,,,,,,,,
,,,,,,,,,,,,,,,2,1,2020-12-07_09h28.06.760,Context_Learning_Pilot,2020.1.3,MacIntel,60,,,,,,,,,,,,3,1,Symb,l,CR,0,1,2,0,1,1,1.8,1,,,,,,,,,,,,,,,,,,,,,,,,,,,,,,,,,media/ddnb.png,h,0,0.7459,5,0,5,0,1,,,,,,,,,,,,,,,,,,,,,,,,,,,,,,,,,,,,,,,
,,,,,,,,,,,,,,,2,1,2020-12-07_09h28.06.760,Context_Learning_Pilot,2020.1.3,MacIntel,60,,,,,,,,,,,,3,1,Symb,l,CR,0,2,2,0,1,1,1.8,1,,,,,,,,,,,,,,,,,,,,,,,,,,,,,,,,,media/ddnb.png,u,0,1.86249,6,0,6,0,1,,,,,,,,,,,,,,,,,,,,,,,,,,,,,,,,,,,,,,,
,,,,,,,,,,,,,,,2,1,2020-12-07_09h28.06.760,Context_Learning_Pilot,2020.1.3,MacIntel,60,,,,,,,,,,,,3,1,Symb,l,CR,0,3,2,0,1,1,1.8,1,,,,,,,,,,,,,,,,,,,,,,,,,,,,,,,,,media/ddnb.png,i,0,0.965885,7,0,7,0,1,,,,,,,,,,,,,,,,,,,,,,,,,,,,,,,,,,,,,,,
,,,,,,,,,,,,,,,2,1,2020-12-07_09h28.06.760,Context_Learning_Pilot,2020.1.3,MacIntel,60,,,,,,,,,,,,3,1,Symb,l,CR,0,4,2,0,1,1,1.8,1,,,,,,,,,,,,,,,,,,,,,,,,,,,,,,,,,media/ddnb.png,h,0,0.42449,8,0,8,0,1,,,,,,,,,,,,,,,,,,,,,,,,,,,,,,,,,,,,,,,
,,,,,,,,,,,,,,,2,1,2020-12-07_09h28.06.760,Context_Learning_Pilot,2020.1.3,MacIntel,60,,,,,,,,,,,,3,1,Symb,l,CR,0,5,2,0,1,1,1.8,1,,,,,,,,,,,,,,,,,,,,,,,,,,,,,,,,,media/ddnb.png,l,1,0.319635,9,0,9,0,1,,,,,,,,,,,,,,,,,,,,,,,,,,,,,,,,,,,,,,,
,,,,,,,,,,,,,,,2,1,2020-12-07_09h28.06.760,Context_Learning_Pilot,2020.1.3,MacIntel,60,,,,,,,,,,,,1,1,Symb,i,CR,0,0,3,0,1,1,1.8,1,,,,,,,,,,,,,,,,,,,,,,,,,,,,,,,,,media/dnnb.png,i,1,1.303255,10,0,10,0,1,,,,,,,,,,,,,,,,,,,,,,,,,,,,,,,,,,,,,,,
,,,,,,,,,,,,,,,2,1,2020-12-07_09h28.06.760,Context_Learning_Pilot,2020.1.3,MacIntel,60,,,,,,,,,,,,2,2,Symb,u,CR,0,0,4,0,1,1,1.8,1,,,,,,,,,,,,,,,,,,,,,,,,,,,,,,,,,media/dinb.png,u,1,1.1205,11,0,11,0,1,,,,,,,,,,,,,,,,,,,,,,,,,,,,,,,,,,,,,,,
,,,,,,,,,,,,,,,2,1,2020-12-07_09h28.06.760,Context_Learning_Pilot,2020.1.3,MacIntel,60,,,,,,,,,,,,3,2,Symb,i,CR,0,0,5,0,1,1,1.8,1,,,,,,,,,,,,,,,,,,,,,,,,,,,,,,,,,media/ddnb.png,h,0,1.02599,12,0,12,0,1,,,,,,,,,,,,,,,,,,,,,,,,,,,,,,,,,,,,,,,
,,,,,,,,,,,,,,,2,1,2020-12-07_09h28.06.760,Context_Learning_Pilot,2020.1.3,MacIntel,60,,,,,,,,,,,,3,2,Symb,i,CR,0,1,5,0,1,1,1.8,1,,,,,,,,,,,,,,,,,,,,,,,,,,,,,,,,,media/ddnb.png,i,1,0.82046,13,0,13,0,1,,,,,,,,,,,,,,,,,,,,,,,,,,,,,,,,,,,,,,,
,,,,,,,,,,,,,,,2,1,2020-12-07_09h28.06.760,Context_Learning_Pilot,2020.1.3,MacIntel,60,,,,,,,,,,,,1,2,Symb,l,CR,0,0,6,0,1,1,1.8,1,,,,,,,,,,,,,,,,,,,,,,,,,,,,,,,,,media/dnnb.png,l,1,4.811215,14,0,14,0,1,,,,,,,,,,,,,,,,,,,,,,,,,,,,,,,,,,,,,,,
,,,,,,,,,,,,,,,2,1,2020-12-07_09h28.06.760,Context_Learning_Pilot,2020.1.3,MacIntel,60,,,,,,,,,,,,2,1,Symb,h,CR,0,0,7,0,1,1,1.8,1,,,,,,,,,,,,,,,,,,,,,,,,,,,,,,,,,media/dinb.png,u,0,0.875005,15,0,15,0,1,,,,,,,,,,,,,,,,,,,,,,,,,,,,,,,,,,,,,,,
,,,,,,,,,,,,,,,2,1,2020-12-07_09h28.06.760,Context_Learning_Pilot,2020.1.3,MacIntel,60,,,,,,,,,,,,2,1,Symb,h,CR,0,1,7,0,1,1,1.8,1,,,,,,,,,,,,,,,,,,,,,,,,,,,,,,,,,media/dinb.png,i,0,0.3731,16,0,16,0,1,,,,,,,,,,,,,,,,,,,,,,,,,,,,,,,,,,,,,,,
,,,,,,,,,,,,,,,2,1,2020-12-07_09h28.06.760,Context_Learning_Pilot,2020.1.3,MacIntel,60,,,,,,,,,,,,2,1,Symb,h,CR,0,2,7,0,1,1,1.8,1,,,,,,,,,,,,,,,,,,,,,,,,,,,,,,,,,media/dinb.png,h,1,0.561505,17,0,17,0,1,,,,,,,,,,,,,,,,,,,,,,,,,,,,,,,,,,,,,,,
,,,,,,,,,,,,,,,2,1,2020-12-07_09h28.06.760,Context_Learning_Pilot,2020.1.3,MacIntel,60,,,,,,,,,,,,2,1,Symb,h,CR,0,0,8,0,1,1,1.8,1,,,,,,,,,,,,,,,,,,,,,,,,,,,,,,,,,media/dinb.png,i,0,1.31577,18,0,18,0,1,,,,,,,,,,,,,,,,,,,,,,,,,,,,,,,,,,,,,,,
,,,,,,,,,,,,,,,2,1,2020-12-07_09h28.06.760,Context_Learning_Pilot,2020.1.3,MacIntel,60,,,,,,,,,,,,2,1,Symb,h,CR,0,1,8,0,1,1,1.8,1,,,,,,,,,,,,,,,,,,,,,,,,,,,,,,,,,media/dinb.png,u,0,0.472385,19,0,19,0,1,,,,,,,,,,,,,,,,,,,,,,,,,,,,,,,,,,,,,,,
,,,,,,,,,,,,,,,2,1,2020-12-07_09h28.06.760,Context_Learning_Pilot,2020.1.3,MacIntel,60,,,,,,,,,,,,2,1,Symb,h,CR,0,2,8,0,1,1,1.8,1,,,,,,,,,,,,,,,,,,,,,,,,,,,,,,,,,media/dinb.png,l,0,0.979175,20,0,20,0,1,,,,,,,,,,,,,,,,,,,,,,,,,,,,,,,,,,,,,,,
,,,,,,,,,,,,,,,2,1,2020-12-07_09h28.06.760,Context_Learning_Pilot,2020.1.3,MacIntel,60,,,,,,,,,,,,2,1,Symb,h,CR,0,3,8,0,1,1,1.8,1,,,,,,,,,,,,,,,,,,,,,,,,,,,,,,,,,media/dinb.png,i,0,0.557795,21,0,21,0,1,,,,,,,,,,,,,,,,,,,,,,,,,,,,,,,,,,,,,,,
,,,,,,,,,,,,,,,2,1,2020-12-07_09h28.06.760,Context_Learning_Pilot,2020.1.3,MacIntel,60,,,,,,,,,,,,2,1,Symb,h,CR,0,4,8,0,1,1,1.8,1,,,,,,,,,,,,,,,,,,,,,,,,,,,,,,,,,media/dinb.png,h,1,0.38543,22,0,22,0,1,,,,,,,,,,,,,,,,,,,,,,,,,,,,,,,,,,,,,,,
,,,,,,,,,,,,,,,2,1,2020-12-07_09h28.06.760,Context_Learning_Pilot,2020.1.3,MacIntel,60,,,,,,,,,,,,3,1,Symb,l,CR,0,0,9,0,1,1,1.8,1,,,,,,,,,,,,,,,,,,,,,,,,,,,,,,,,,media/ddnb.png,u,0,1.59476,23,0,23,0,1,,,,,,,,,,,,,,,,,,,,,,,,,,,,,,,,,,,,,,,
,,,,,,,,,,,,,,,2,1,2020-12-07_09h28.06.760,Context_Learning_Pilot,2020.1.3,MacIntel,60,,,,,,,,,,,,3,1,Symb,l,CR,0,1,9,0,1,1,1.8,1,,,,,,,,,,,,,,,,,,,,,,,,,,,,,,,,,media/ddnb.png,i,0,0.610565,24,0,24,0,1,,,,,,,,,,,,,,,,,,,,,,,,,,,,,,,,,,,,,,,
,,,,,,,,,,,,,,,2,1,2020-12-07_09h28.06.760,Context_Learning_Pilot,2020.1.3,MacIntel,60,,,,,,,,,,,,3,1,Symb,l,CR,0,2,9,0,1,1,1.8,1,,,,,,,,,,,,,,,,,,,,,,,,,,,,,,,,,media/ddnb.png,h,0,0.78579,25,0,25,0,1,,,,,,,,,,,,,,,,,,,,,,,,,,,,,,,,,,,,,,,
,,,,,,,,,,,,,,,2,1,2020-12-07_09h28.06.760,Context_Learning_Pilot,2020.1.3,MacIntel,60,,,,,,,,,,,,3,1,Symb,l,CR,0,3,9,0,1,1,1.8,1,,,,,,,,,,,,,,,,,,,,,,,,,,,,,,,,,media/ddnb.png,l,1,0.584715,26,0,26,0,1,,,,,,,,,,,,,,,,,,,,,,,,,,,,,,,,,,,,,,,
,,,,,,,,,,,,,,,2,1,2020-12-07_09h28.06.760,Context_Learning_Pilot,2020.1.3,MacIntel,60,,,,,,,,,,,,0,2,Symb,h,CR,0,0,10,0,1,1,1.8,1,,,,,,,,,,,,,,,,,,,,,,,,,,,,,,,,,media/djnb.png,u,0,1.681065,27,0,27,0,1,,,,,,,,,,,,,,,,,,,,,,,,,,,,,,,,,,,,,,,
,,,,,,,,,,,,,,,2,1,2020-12-07_09h28.06.760,Context_Learning_Pilot,2020.1.3,MacIntel,60,,,,,,,,,,,,0,2,Symb,h,CR,0,1,10,0,1,1,1.8,1,,,,,,,,,,,,,,,,,,,,,,,,,,,,,,,,,media/djnb.png,i,0,0.374825,28,0,28,0,1,,,,,,,,,,,,,,,,,,,,,,,,,,,,,,,,,,,,,,,
,,,,,,,,,,,,,,,2,1,2020-12-07_09h28.06.760,Context_Learning_Pilot,2020.1.3,MacIntel,60,,,,,,,,,,,,0,2,Symb,h,CR,0,2,10,0,1,1,1.8,1,,,,,,,,,,,,,,,,,,,,,,,,,,,,,,,,,media/djnb.png,l,0,0.33617,29,0,29,0,1,,,,,,,,,,,,,,,,,,,,,,,,,,,,,,,,,,,,,,,
,,,,,,,,,,,,,,,2,1,2020-12-07_09h28.06.760,Context_Learning_Pilot,2020.1.3,MacIntel,60,,,,,,,,,,,,0,2,Symb,h,CR,0,3,10,0,1,1,1.8,1,,,,,,,,,,,,,,,,,,,,,,,,,,,,,,,,,media/djnb.png,h,1,0.352075,30,0,30,0,1,,,,,,,,,,,,,,,,,,,,,,,,,,,,,,,,,,,,,,,
,,,,,,,,,,,,,,,2,1,2020-12-07_09h28.06.760,Context_Learning_Pilot,2020.1.3,MacIntel,60,,,,,,,,,,,,3,2,Symb,i,CR,0,0,11,0,1,1,1.8,1,,,,,,,,,,,,,,,,,,,,,,,,,,,,,,,,,media/ddnb.png,u,0,1.249075,31,0,31,0,1,,,,,,,,,,,,,,,,,,,,,,,,,,,,,,,,,,,,,,,
,,,,,,,,,,,,,,,2,1,2020-12-07_09h28.06.760,Context_Learning_Pilot,2020.1.3,MacIntel,60,,,,,,,,,,,,3,2,Symb,i,CR,0,1,11,0,1,1,1.8,1,,,,,,,,,,,,,,,,,,,,,,,,,,,,,,,,,media/ddnb.png,i,1,0.13613,32,0,32,0,1,,,,,,,,,,,,,,,,,,,,,,,,,,,,,,,,,,,,,,,
,,,,,,,,,,,,,,,2,1,2020-12-07_09h28.06.760,Context_Learning_Pilot,2020.1.3,MacIntel,60,,,,,,,,,,,,0,1,Symb,u,CR,0,0,12,0,1,1,1.8,1,,,,,,,,,,,,,,,,,,,,,,,,,,,,,,,,,media/djnb.png,l,0,1.06608,33,0,33,0,1,,,,,,,,,,,,,,,,,,,,,,,,,,,,,,,,,,,,,,,
,,,,,,,,,,,,,,,2,1,2020-12-07_09h28.06.760,Context_Learning_Pilot,2020.1.3,MacIntel,60,,,,,,,,,,,,0,1,Symb,u,CR,0,1,12,0,1,1,1.8,1,,,,,,,,,,,,,,,,,,,,,,,,,,,,,,,,,media/djnb.png,u,1,0.27387,34,0,34,0,1,,,,,,,,,,,,,,,,,,,,,,,,,,,,,,,,,,,,,,,
,,,,,,,,,,,,,,,2,1,2020-12-07_09h28.06.760,Context_Learning_Pilot,2020.1.3,MacIntel,60,,,,,,,,,,,,2,2,Symb,u,CR,0,0,13,0,1,1,1.8,1,,,,,,,,,,,,,,,,,,,,,,,,,,,,,,,,,media/dinb.png,u,1,1.20328,35,0,35,0,1,,,,,,,,,,,,,,,,,,,,,,,,,,,,,,,,,,,,,,,
,,,,,,,,,,,,,,,2,1,2020-12-07_09h28.06.760,Context_Learning_Pilot,2020.1.3,MacIntel,60,,,,,,,,,,,,1,1,Symb,i,CR,0,0,14,0,1,1,1.8,1,,,,,,,,,,,,,,,,,,,,,,,,,,,,,,,,,media/dnnb.png,i,1,1.226075,36,0,36,0,1,,,,,,,,,,,,,,,,,,,,,,,,,,,,,,,,,,,,,,,
,,,,,,,,,,,,,,,2,1,2020-12-07_09h28.06.760,Context_Learning_Pilot,2020.1.3,MacIntel,60,,,,,,,,,,,,0,2,Symb,h,CR,0,0,15,0,1,1,1.8,1,,,,,,,,,,,,,,,,,,,,,,,,,,,,,,,,,media/djnb.png,l,0,1.137315,37,0,37,0,1,,,,,,,,,,,,,,,,,,,,,,,,,,,,,,,,,,,,,,,
,,,,,,,,,,,,,,,2,1,2020-12-07_09h28.06.760,Context_Learning_Pilot,2020.1.3,MacIntel,60,,,,,,,,,,,,0,2,Symb,h,CR,0,1,15,0,1,1,1.8,1,,,,,,,,,,,,,,,,,,,,,,,,,,,,,,,,,media/djnb.png,h,1,0.334065,38,0,38,0,1,,,,,,,,,,,,,,,,,,,,,,,,,,,,,,,,,,,,,,,
,,,,,,,,,,,,,,,2,1,2020-12-07_09h28.06.760,Context_Learning_Pilot,2020.1.3,MacIntel,60,,,,,,,,,,,,3,1,Symb,l,CR,0,0,16,0,1,1,1.8,1,,,,,,,,,,,,,,,,,,,,,,,,,,,,,,,,,media/ddnb.png,u,0,1.086025,39,0,39,0,1,,,,,,,,,,,,,,,,,,,,,,,,,,,,,,,,,,,,,,,
,,,,,,,,,,,,,,,2,1,2020-12-07_09h28.06.760,Context_Learning_Pilot,2020.1.3,MacIntel,60,,,,,,,,,,,,3,1,Symb,l,CR,0,1,16,0,1,1,1.8,1,,,,,,,,,,,,,,,,,,,,,,,,,,,,,,,,,media/ddnb.png,h,0,0.297975,40,0,40,0,1,,,,,,,,,,,,,,,,,,,,,,,,,,,,,,,,,,,,,,,
,,,,,,,,,,,,,,,2,1,2020-12-07_09h28.06.760,Context_Learning_Pilot,2020.1.3,MacIntel,60,,,,,,,,,,,,3,1,Symb,l,CR,0,2,16,0,1,1,1.8,1,,,,,,,,,,,,,,,,,,,,,,,,,,,,,,,,,media/ddnb.png,i,0,0.358545,41,0,41,0,1,,,,,,,,,,,,,,,,,,,,,,,,,,,,,,,,,,,,,,,
,,,,,,,,,,,,,,,2,1,2020-12-07_09h28.06.760,Context_Learning_Pilot,2020.1.3,MacIntel,60,,,,,,,,,,,,3,1,Symb,l,CR,0,3,16,0,1,1,1.8,1,,,,,,,,,,,,,,,,,,,,,,,,,,,,,,,,,media/ddnb.png,l,1,0.351165,42,0,42,0,1,,,,,,,,,,,,,,,,,,,,,,,,,,,,,,,,,,,,,,,
,,,,,,,,,,,,,,,2,1,2020-12-07_09h28.06.760,Context_Learning_Pilot,2020.1.3,MacIntel,60,,,,,,,,,,,,2,2,Symb,u,CR,0,0,17,0,1,1,1.8,1,,,,,,,,,,,,,,,,,,,,,,,,,,,,,,,,,media/dinb.png,i,0,0.89238,43,0,43,0,1,,,,,,,,,,,,,,,,,,,,,,,,,,,,,,,,,,,,,,,
,,,,,,,,,,,,,,,2,1,2020-12-07_09h28.06.760,Context_Learning_Pilot,2020.1.3,MacIntel,60,,,,,,,,,,,,2,2,Symb,u,CR,0,1,17,0,1,1,1.8,1,,,,,,,,,,,,,,,,,,,,,,,,,,,,,,,,,media/dinb.png,u,1,0.57145,44,0,44,0,1,,,,,,,,,,,,,,,,,,,,,,,,,,,,,,,,,,,,,,,
,,,,,,,,,,,,,,,2,1,2020-12-07_09h28.06.760,Context_Learning_Pilot,2020.1.3,MacIntel,60,,,,,,,,,,,,3,2,Symb,i,CR,0,0,18,0,1,1,1.8,1,,,,,,,,,,,,,,,,,,,,,,,,,,,,,,,,,media/ddnb.png,h,0,3.00735,45,0,45,0,1,,,,,,,,,,,,,,,,,,,,,,,,,,,,,,,,,,,,,,,
,,,,,,,,,,,,,,,2,1,2020-12-07_09h28.06.760,Context_Learning_Pilot,2020.1.3,MacIntel,60,,,,,,,,,,,,3,2,Symb,i,CR,0,1,18,0,1,1,1.8,1,,,,,,,,,,,,,,,,,,,,,,,,,,,,,,,,,media/ddnb.png,u,0,0.100815,46,0,46,0,1,,,,,,,,,,,,,,,,,,,,,,,,,,,,,,,,,,,,,,,
,,,,,,,,,,,,,,,2,1,2020-12-07_09h28.06.760,Context_Learning_Pilot,2020.1.3,MacIntel,60,,,,,,,,,,,,3,2,Symb,i,CR,0,2,18,0,1,1,1.8,1,,,,,,,,,,,,,,,,,,,,,,,,,,,,,,,,,media/ddnb.png,i,1,0.207415,47,0,47,0,1,,,,,,,,,,,,,,,,,,,,,,,,,,,,,,,,,,,,,,,
,,,,,,,,,,,,,,,2,1,2020-12-07_09h28.06.760,Context_Learning_Pilot,2020.1.3,MacIntel,60,,,,,,,,,,,,0,1,Symb,u,CR,0,0,19,0,1,1,1.8,1,,,,,,,,,,,,,,,,,,,,,,,,,,,,,,,,,media/djnb.png,h,0,3.23177,48,0,48,0,1,,,,,,,,,,,,,,,,,,,,,,,,,,,,,,,,,,,,,,,
,,,,,,,,,,,,,,,2,1,2020-12-07_09h28.06.760,Context_Learning_Pilot,2020.1.3,MacIntel,60,,,,,,,,,,,,0,1,Symb,u,CR,0,1,19,0,1,1,1.8,1,,,,,,,,,,,,,,,,,,,,,,,,,,,,,,,,,media/djnb.png,u,1,0.437815,49,0,49,0,1,,,,,,,,,,,,,,,,,,,,,,,,,,,,,,,,,,,,,,,
,,,,,,,,,,,,,,,2,1,2020-12-07_09h28.06.760,Context_Learning_Pilot,2020.1.3,MacIntel,60,,,,,,,,,,,,1,1,Symb,i,CR,0,0,20,0,1,1,1.8,1,,,,,,,,,,,,,,,,,,,,,,,,,,,,,,,,,media/dnnb.png,u,0,1.76447,50,0,50,0,1,,,,,,,,,,,,,,,,,,,,,,,,,,,,,,,,,,,,,,,
,,,,,,,,,,,,,,,2,1,2020-12-07_09h28.06.760,Context_Learning_Pilot,2020.1.3,MacIntel,60,,,,,,,,,,,,1,1,Symb,i,CR,0,1,20,0,1,1,1.8,1,,,,,,,,,,,,,,,,,,,,,,,,,,,,,,,,,media/dnnb.png,i,1,0.368935,51,0,51,0,1,,,,,,,,,,,,,,,,,,,,,,,,,,,,,,,,,,,,,,,
,,,,,,,,,,,,,,,2,1,2020-12-07_09h28.06.760,Context_Learning_Pilot,2020.1.3,MacIntel,60,,,,,,,,,,,,2,1,Symb,h,CR,0,0,21,0,1,1,1.8,1,,,,,,,,,,,,,,,,,,,,,,,,,,,,,,,,,media/dinb.png,u,0,0.99883,52,0,52,0,1,,,,,,,,,,,,,,,,,,,,,,,,,,,,,,,,,,,,,,,
,,,,,,,,,,,,,,,2,1,2020-12-07_09h28.06.760,Context_Learning_Pilot,2020.1.3,MacIntel,60,,,,,,,,,,,,2,1,Symb,h,CR,0,1,21,0,1,1,1.8,1,,,,,,,,,,,,,,,,,,,,,,,,,,,,,,,,,media/dinb.png,l,0,0.335265,53,0,53,0,1,,,,,,,,,,,,,,,,,,,,,,,,,,,,,,,,,,,,,,,
,,,,,,,,,,,,,,,2,1,2020-12-07_09h28.06.760,Context_Learning_Pilot,2020.1.3,MacIntel,60,,,,,,,,,,,,2,1,Symb,h,CR,0,2,21,0,1,1,1.8,1,,,,,,,,,,,,,,,,,,,,,,,,,,,,,,,,,media/dinb.png,h,1,0.240185,54,0,54,0,1,,,,,,,,,,,,,,,,,,,,,,,,,,,,,,,,,,,,,,,
,,,,,,,,,,,,,,,2,1,2020-12-07_09h28.06.760,Context_Learning_Pilot,2020.1.3,MacIntel,60,,,,,,,,,,,,3,1,Symb,l,CR,0,0,22,0,1,1,1.8,1,,,,,,,,,,,,,,,,,,,,,,,,,,,,,,,,,media/ddnb.png,i,0,2.20628,55,0,55,0,1,,,,,,,,,,,,,,,,,,,,,,,,,,,,,,,,,,,,,,,
,,,,,,,,,,,,,,,2,1,2020-12-07_09h28.06.760,Context_Learning_Pilot,2020.1.3,MacIntel,60,,,,,,,,,,,,3,1,Symb,l,CR,0,1,22,0,1,1,1.8,1,,,,,,,,,,,,,,,,,,,,,,,,,,,,,,,,,media/ddnb.png,u,0,0.28518,56,0,56,0,1,,,,,,,,,,,,,,,,,,,,,,,,,,,,,,,,,,,,,,,
,,,,,,,,,,,,,,,2,1,2020-12-07_09h28.06.760,Context_Learning_Pilot,2020.1.3,MacIntel,60,,,,,,,,,,,,3,1,Symb,l,CR,0,2,22,0,1,1,1.8,1,,,,,,,,,,,,,,,,,,,,,,,,,,,,,,,,,media/ddnb.png,l,1,0.599615,57,0,57,0,1,,,,,,,,,,,,,,,,,,,,,,,,,,,,,,,,,,,,,,,
,,,,,,,,,,,,,,,2,1,2020-12-07_09h28.06.760,Context_Learning_Pilot,2020.1.3,MacIntel,60,,,,,,,,,,,,1,2,Symb,l,CR,0,0,23,0,1,1,1.8,1,,,,,,,,,,,,,,,,,,,,,,,,,,,,,,,,,media/dnnb.png,i,0,2.353775,58,0,58,0,1,,,,,,,,,,,,,,,,,,,,,,,,,,,,,,,,,,,,,,,
,,,,,,,,,,,,,,,2,1,2020-12-07_09h28.06.760,Context_Learning_Pilot,2020.1.3,MacIntel,60,,,,,,,,,,,,1,2,Symb,l,CR,0,1,23,0,1,1,1.8,1,,,,,,,,,,,,,,,,,,,,,,,,,,,,,,,,,media/dnnb.png,h,0,0.10632,59,0,59,0,1,,,,,,,,,,,,,,,,,,,,,,,,,,,,,,,,,,,,,,,
,,,,,,,,,,,,,,,2,1,2020-12-07_09h28.06.760,Context_Learning_Pilot,2020.1.3,MacIntel,60,,,,,,,,,,,,1,2,Symb,l,CR,0,2,23,0,1,1,1.8,1,,,,,,,,,,,,,,,,,,,,,,,,,,,,,,,,,media/dnnb.png,u,0,0.07217,60,0,60,0,1,,,,,,,,,,,,,,,,,,,,,,,,,,,,,,,,,,,,,,,
,,,,,,,,,,,,,,,2,1,2020-12-07_09h28.06.760,Context_Learning_Pilot,2020.1.3,MacIntel,60,,,,,,,,,,,,1,2,Symb,l,CR,0,3,23,0,1,1,1.8,1,,,,,,,,,,,,,,,,,,,,,,,,,,,,,,,,,media/dnnb.png,l,1,0.051565,61,0,61,0,1,,,,,,,,,,,,,,,,,,,,,,,,,,,,,,,,,,,,,,,
,,,,,,,,,,,,,,,2,1,2020-12-07_09h28.06.760,Context_Learning_Pilot,2020.1.3,MacIntel,60,,,,,,,,,,,,1,1,Symb,i,CR,0,0,24,0,1,1,1.8,1,,,,,,,,,,,,,,,,,,,,,,,,,,,,,,,,,media/dnnb.png,h,0,2.565745,62,0,62,0,1,,,,,,,,,,,,,,,,,,,,,,,,,,,,,,,,,,,,,,,
,,,,,,,,,,,,,,,2,1,2020-12-07_09h28.06.760,Context_Learning_Pilot,2020.1.3,MacIntel,60,,,,,,,,,,,,1,1,Symb,i,CR,0,1,24,0,1,1,1.8,1,,,,,,,,,,,,,,,,,,,,,,,,,,,,,,,,,media/dnnb.png,u,0,0.36677,63,0,63,0,1,,,,,,,,,,,,,,,,,,,,,,,,,,,,,,,,,,,,,,,
,,,,,,,,,,,,,,,2,1,2020-12-07_09h28.06.760,Context_Learning_Pilot,2020.1.3,MacIntel,60,,,,,,,,,,,,1,1,Symb,i,CR,0,2,24,0,1,1,1.8,1,,,,,,,,,,,,,,,,,,,,,,,,,,,,,,,,,media/dnnb.png,i,1,0.345285,64,0,64,0,1,,,,,,,,,,,,,,,,,,,,,,,,,,,,,,,,,,,,,,,
,,,,,,,,,,,,,,,2,1,2020-12-07_09h28.06.760,Context_Learning_Pilot,2020.1.3,MacIntel,60,,,,,,,,,,,,1,2,Symb,l,CR,0,0,25,0,1,1,1.8,1,,,,,,,,,,,,,,,,,,,,,,,,,,,,,,,,,media/dnnb.png,l,1,1.02294,65,0,65,0,1,,,,,,,,,,,,,,,,,,,,,,,,,,,,,,,,,,,,,,,
,,,,,,,,,,,,,,,2,1,2020-12-07_09h28.06.760,Context_Learning_Pilot,2020.1.3,MacIntel,60,,,,,,,,,,,,2,2,Symb,u,CR,0,0,26,0,1,1,1.8,1,,,,,,,,,,,,,,,,,,,,,,,,,,,,,,,,,media/dinb.png,h,0,1.969855,66,0,66,0,1,,,,,,,,,,,,,,,,,,,,,,,,,,,,,,,,,,,,,,,
,,,,,,,,,,,,,,,2,1,2020-12-07_09h28.06.760,Context_Learning_Pilot,2020.1.3,MacIntel,60,,,,,,,,,,,,2,2,Symb,u,CR,0,1,26,0,1,1,1.8,1,,,,,,,,,,,,,,,,,,,,,,,,,,,,,,,,,media/dinb.png,u,1,0.11807,67,0,67,0,1,,,,,,,,,,,,,,,,,,,,,,,,,,,,,,,,,,,,,,,
,,,,,,,,,,,,,,,2,1,2020-12-07_09h28.06.760,Context_Learning_Pilot,2020.1.3,MacIntel,60,,,,,,,,,,,,0,1,Symb,u,CR,0,0,27,0,1,1,1.8,1,,,,,,,,,,,,,,,,,,,,,,,,,,,,,,,,,media/djnb.png,u,1,1.3546,68,0,68,0,1,,,,,,,,,,,,,,,,,,,,,,,,,,,,,,,,,,,,,,,
,,,,,,,,,,,,,,,2,1,2020-12-07_09h28.06.760,Context_Learning_Pilot,2020.1.3,MacIntel,60,,,,,,,,,,,,0,2,Symb,h,CR,0,0,28,0,1,1,1.8,1,,,,,,,,,,,,,,,,,,,,,,,,,,,,,,,,,media/djnb.png,i,0,2.294605,69,0,69,0,1,,,,,,,,,,,,,,,,,,,,,,,,,,,,,,,,,,,,,,,
,,,,,,,,,,,,,,,2,1,2020-12-07_09h28.06.760,Context_Learning_Pilot,2020.1.3,MacIntel,60,,,,,,,,,,,,0,2,Symb,h,CR,0,1,28,0,1,1,1.8,1,,,,,,,,,,,,,,,,,,,,,,,,,,,,,,,,,media/djnb.png,h,1,0.636365,70,0,70,0,1,,,,,,,,,,,,,,,,,,,,,,,,,,,,,,,,,,,,,,,
,,,,,,,,,,,,,,,2,1,2020-12-07_09h28.06.760,Context_Learning_Pilot,2020.1.3,MacIntel,60,,,,,,,,,,,,2,1,Symb,h,CR,0,0,29,0,1,1,1.8,1,,,,,,,,,,,,,,,,,,,,,,,,,,,,,,,,,media/dinb.png,u,0,1.468125,71,0,71,0,1,,,,,,,,,,,,,,,,,,,,,,,,,,,,,,,,,,,,,,,
,,,,,,,,,,,,,,,2,1,2020-12-07_09h28.06.760,Context_Learning_Pilot,2020.1.3,MacIntel,60,,,,,,,,,,,,2,1,Symb,h,CR,0,1,29,0,1,1,1.8,1,,,,,,,,,,,,,,,,,,,,,,,,,,,,,,,,,media/dinb.png,h,1,0.074815,72,0,72,0,1,,,,,,,,,,,,,,,,,,,,,,,,,,,,,,,,,,,,,,,
,,,,,,,,,,,,,,,2,1,2020-12-07_09h28.06.760,Context_Learning_Pilot,2020.1.3,MacIntel,60,,,,,,,,,,,,0,2,Symb,h,CR,0,0,30,0,1,1,1.8,1,,,,,,,,,,,,,,,,,,,,,,,,,,,,,,,,,media/djnb.png,h,1,1.316135,73,0,73,0,1,,,,,,,,,,,,,,,,,,,,,,,,,,,,,,,,,,,,,,,
,,,,,,,,,,,,,,,2,1,2020-12-07_09h28.06.760,Context_Learning_Pilot,2020.1.3,MacIntel,60,,,,,,,,,,,,3,2,Symb,i,CR,0,0,31,0,1,1,1.8,1,,,,,,,,,,,,,,,,,,,,,,,,,,,,,,,,,media/ddnb.png,l,0,1.81524,74,0,74,0,1,,,,,,,,,,,,,,,,,,,,,,,,,,,,,,,,,,,,,,,
,,,,,,,,,,,,,,,2,1,2020-12-07_09h28.06.760,Context_Learning_Pilot,2020.1.3,MacIntel,60,,,,,,,,,,,,3,2,Symb,i,CR,0,1,31,0,1,1,1.8,1,,,,,,,,,,,,,,,,,,,,,,,,,,,,,,,,,media/ddnb.png,i,1,0.286115,75,0,75,0,1,,,,,,,,,,,,,,,,,,,,,,,,,,,,,,,,,,,,,,,
,,,,,,,,,,,,,,,2,1,2020-12-07_09h28.06.760,Context_Learning_Pilot,2020.1.3,MacIntel,60,,,,,,,,,,,,0,1,Symb,u,CR,0,0,32,0,1,1,1.8,1,,,,,,,,,,,,,,,,,,,,,,,,,,,,,,,,,media/djnb.png,h,0,1.51459,76,0,76,0,1,,,,,,,,,,,,,,,,,,,,,,,,,,,,,,,,,,,,,,,
,,,,,,,,,,,,,,,2,1,2020-12-07_09h28.06.760,Context_Learning_Pilot,2020.1.3,MacIntel,60,,,,,,,,,,,,0,1,Symb,u,CR,0,1,32,0,1,1,1.8,1,,,,,,,,,,,,,,,,,,,,,,,,,,,,,,,,,media/djnb.png,u,1,0.25282,77,0,77,0,1,,,,,,,,,,,,,,,,,,,,,,,,,,,,,,,,,,,,,,,
,,,,,,,,,,,,,,,2,1,2020-12-07_09h28.06.760,Context_Learning_Pilot,2020.1.3,MacIntel,60,,,,,,,,,,,,1,1,Symb,i,CR,0,0,33,0,1,1,1.8,1,,,,,,,,,,,,,,,,,,,,,,,,,,,,,,,,,media/dnnb.png,h,0,2.243855,78,0,78,0,1,,,,,,,,,,,,,,,,,,,,,,,,,,,,,,,,,,,,,,,
,,,,,,,,,,,,,,,2,1,2020-12-07_09h28.06.760,Context_Learning_Pilot,2020.1.3,MacIntel,60,,,,,,,,,,,,1,1,Symb,i,CR,0,1,33,0,1,1,1.8,1,,,,,,,,,,,,,,,,,,,,,,,,,,,,,,,,,media/dnnb.png,u,0,0.09332,79,0,79,0,1,,,,,,,,,,,,,,,,,,,,,,,,,,,,,,,,,,,,,,,
,,,,,,,,,,,,,,,2,1,2020-12-07_09h28.06.760,Context_Learning_Pilot,2020.1.3,MacIntel,60,,,,,,,,,,,,1,1,Symb,i,CR,0,2,33,0,1,1,1.8,1,,,,,,,,,,,,,,,,,,,,,,,,,,,,,,,,,media/dnnb.png,i,1,0.15984,80,0,80,0,1,,,,,,,,,,,,,,,,,,,,,,,,,,,,,,,,,,,,,,,
,,,,,,,,,,,,,,,2,1,2020-12-07_09h28.06.760,Context_Learning_Pilot,2020.1.3,MacIntel,60,,,,,,,,,,,,3,2,Symb,i,CR,0,0,34,0,1,1,1.8,1,,,,,,,,,,,,,,,,,,,,,,,,,,,,,,,,,media/ddnb.png,i,1,3.116015,81,0,81,0,1,,,,,,,,,,,,,,,,,,,,,,,,,,,,,,,,,,,,,,,
,,,,,,,,,,,,,,,2,1,2020-12-07_09h28.06.760,Context_Learning_Pilot,2020.1.3,MacIntel,60,,,,,,,,,,,,2,2,Symb,u,CR,0,0,35,0,1,1,1.8,1,,,,,,,,,,,,,,,,,,,,,,,,,,,,,,,,,media/dinb.png,u,1,2.29603,82,0,82,0,1,,,,,,,,,,,,,,,,,,,,,,,,,,,,,,,,,,,,,,,
,,,,,,,,,,,,,,,2,1,2020-12-07_09h28.06.760,Context_Learning_Pilot,2020.1.3,MacIntel,60,,,,,,,,,,,,3,1,Symb,l,CR,0,0,36,0,1,1,1.8,1,,,,,,,,,,,,,,,,,,,,,,,,,,,,,,,,,media/ddnb.png,l,1,1.57498,83,0,83,0,1,,,,,,,,,,,,,,,,,,,,,,,,,,,,,,,,,,,,,,,
,,,,,,,,,,,,,,,2,1,2020-12-07_09h28.06.760,Context_Learning_Pilot,2020.1.3,MacIntel,60,,,,,,,,,,,,1,2,Symb,l,CR,0,0,37,0,1,1,1.8,1,,,,,,,,,,,,,,,,,,,,,,,,,,,,,,,,,media/dnnb.png,l,1,0.811915,84,0,84,0,1,,,,,,,,,,,,,,,,,,,,,,,,,,,,,,,,,,,,,,,
,,,,,,,,,,,,,,,2,1,2020-12-07_09h28.06.760,Context_Learning_Pilot,2020.1.3,MacIntel,60,,,,,,,,,,,,2,1,Symb,h,CR,0,0,38,0,1,1,1.8,1,,,,,,,,,,,,,,,,,,,,,,,,,,,,,,,,,media/dinb.png,i,0,2.643965,85,0,85,0,1,,,,,,,,,,,,,,,,,,,,,,,,,,,,,,,,,,,,,,,
,,,,,,,,,,,,,,,2,1,2020-12-07_09h28.06.760,Context_Learning_Pilot,2020.1.3,MacIntel,60,,,,,,,,,,,,2,1,Symb,h,CR,0,1,38,0,1,1,1.8,1,,,,,,,,,,,,,,,,,,,,,,,,,,,,,,,,,media/dinb.png,u,0,0.30676,86,0,86,0,1,,,,,,,,,,,,,,,,,,,,,,,,,,,,,,,,,,,,,,,
,,,,,,,,,,,,,,,2,1,2020-12-07_09h28.06.760,Context_Learning_Pilot,2020.1.3,MacIntel,60,,,,,,,,,,,,2,1,Symb,h,CR,0,2,38,0,1,1,1.8,1,,,,,,,,,,,,,,,,,,,,,,,,,,,,,,,,,media/dinb.png,h,1,0.28139,87,0,87,0,1,,,,,,,,,,,,,,,,,,,,,,,,,,,,,,,,,,,,,,,
,,,,,,,,,,,,,,,2,1,2020-12-07_09h28.06.760,Context_Learning_Pilot,2020.1.3,MacIntel,60,,,,,,,,,,,,0,2,Symb,h,CR,0,0,39,0,1,1,1.8,1,,,,,,,,,,,,,,,,,,,,,,,,,,,,,,,,,media/djnb.png,u,0,2.310575,88,0,88,0,1,,,,,,,,,,,,,,,,,,,,,,,,,,,,,,,,,,,,,,,
,,,,,,,,,,,,,,,2,1,2020-12-07_09h28.06.760,Context_Learning_Pilot,2020.1.3,MacIntel,60,,,,,,,,,,,,0,2,Symb,h,CR,0,1,39,0,1,1,1.8,1,,,,,,,,,,,,,,,,,,,,,,,,,,,,,,,,,media/djnb.png,h,1,0.357915,89,0,89,0,1,,,,,,,,,,,,,,,,,,,,,,,,,,,,,,,,,,,,,,,
,,,,,,,,,,,,,,,2,1,2020-12-07_09h28.06.760,Context_Learning_Pilot,2020.1.3,MacIntel,60,,,,,,,,,,,,3,2,Symb,i,CR,0,0,40,0,1,1,1.8,1,,,,,,,,,,,,,,,,,,,,,,,,,,,,,,,,,media/ddnb.png,l,0,3.749635,90,0,90,0,1,,,,,,,,,,,,,,,,,,,,,,,,,,,,,,,,,,,,,,,
,,,,,,,,,,,,,,,2,1,2020-12-07_09h28.06.760,Context_Learning_Pilot,2020.1.3,MacIntel,60,,,,,,,,,,,,3,2,Symb,i,CR,0,1,40,0,1,1,1.8,1,,,,,,,,,,,,,,,,,,,,,,,,,,,,,,,,,media/ddnb.png,h,0,0.088445,91,0,91,0,1,,,,,,,,,,,,,,,,,,,,,,,,,,,,,,,,,,,,,,,
,,,,,,,,,,,,,,,2,1,2020-12-07_09h28.06.760,Context_Learning_Pilot,2020.1.3,MacIntel,60,,,,,,,,,,,,3,2,Symb,i,CR,0,2,40,0,1,1,1.8,1,,,,,,,,,,,,,,,,,,,,,,,,,,,,,,,,,media/ddnb.png,i,1,0.622845,92,0,92,0,1,,,,,,,,,,,,,,,,,,,,,,,,,,,,,,,,,,,,,,,
,,,,,,,,,,,,,,,2,1,2020-12-07_09h28.06.760,Context_Learning_Pilot,2020.1.3,MacIntel,60,,,,,,,,,,,,1,1,Symb,i,CR,0,0,41,0,1,1,1.8,1,,,,,,,,,,,,,,,,,,,,,,,,,,,,,,,,,media/dnnb.png,h,0,3.142615,93,0,93,0,1,,,,,,,,,,,,,,,,,,,,,,,,,,,,,,,,,,,,,,,
,,,,,,,,,,,,,,,2,1,2020-12-07_09h28.06.760,Context_Learning_Pilot,2020.1.3,MacIntel,60,,,,,,,,,,,,1,1,Symb,i,CR,0,1,41,0,1,1,1.8,1,,,,,,,,,,,,,,,,,,,,,,,,,,,,,,,,,media/dnnb.png,i,1,0.065115,94,0,94,0,1,,,,,,,,,,,,,,,,,,,,,,,,,,,,,,,,,,,,,,,
,,,,,,,,,,,,,,,2,1,2020-12-07_09h28.06.760,Context_Learning_Pilot,2020.1.3,MacIntel,60,,,,,,,,,,,,2,1,Symb,h,CR,0,0,42,0,1,1,1.8,1,,,,,,,,,,,,,,,,,,,,,,,,,,,,,,,,,media/dinb.png,h,1,1.673125,95,0,95,0,1,,,,,,,,,,,,,,,,,,,,,,,,,,,,,,,,,,,,,,,
,,,,,,,,,,,,,,,2,1,2020-12-07_09h28.06.760,Context_Learning_Pilot,2020.1.3,MacIntel,60,,,,,,,,,,,,3,1,Symb,l,CR,0,0,43,0,1,1,1.8,1,,,,,,,,,,,,,,,,,,,,,,,,,,,,,,,,,media/ddnb.png,l,1,1.626015,96,0,96,0,1,,,,,,,,,,,,,,,,,,,,,,,,,,,,,,,,,,,,,,,
,,,,,,,,,,,,,,,2,1,2020-12-07_09h28.06.760,Context_Learning_Pilot,2020.1.3,MacIntel,60,,,,,,,,,,,,2,2,Symb,u,CR,0,0,44,0,1,1,1.8,1,,,,,,,,,,,,,,,,,,,,,,,,,,,,,,,,,media/dinb.png,u,1,1.44955,97,0,97,0,1,,,,,,,,,,,,,,,,,,,,,,,,,,,,,,,,,,,,,,,
,,,,,,,,,,,,,,,2,1,2020-12-07_09h28.06.760,Context_Learning_Pilot,2020.1.3,MacIntel,60,,,,,,,,,,,,1,1,Symb,i,CR,0,0,45,0,1,1,1.8,1,,,,,,,,,,,,,,,,,,,,,,,,,,,,,,,,,media/dnnb.png,h,0,2.06495,98,0,98,0,1,,,,,,,,,,,,,,,,,,,,,,,,,,,,,,,,,,,,,,,
,,,,,,,,,,,,,,,2,1,2020-12-07_09h28.06.760,Context_Learning_Pilot,2020.1.3,MacIntel,60,,,,,,,,,,,,1,1,Symb,i,CR,0,1,45,0,1,1,1.8,1,,,,,,,,,,,,,,,,,,,,,,,,,,,,,,,,,media/dnnb.png,i,1,0.07188,99,0,99,0,1,,,,,,,,,,,,,,,,,,,,,,,,,,,,,,,,,,,,,,,
,,,,,,,,,,,,,,,2,1,2020-12-07_09h28.06.760,Context_Learning_Pilot,2020.1.3,MacIntel,60,,,,,,,,,,,,0,2,Symb,h,CR,0,0,46,0,1,1,1.8,1,,,,,,,,,,,,,,,,,,,,,,,,,,,,,,,,,media/djnb.png,u,0,1.28771,100,0,100,0,1,,,,,,,,,,,,,,,,,,,,,,,,,,,,,,,,,,,,,,,
,,,,,,,,,,,,,,,2,1,2020-12-07_09h28.06.760,Context_Learning_Pilot,2020.1.3,MacIntel,60,,,,,,,,,,,,0,2,Symb,h,CR,0,1,46,0,1,1,1.8,1,,,,,,,,,,,,,,,,,,,,,,,,,,,,,,,,,media/djnb.png,i,0,0.09404,101,0,101,0,1,,,,,,,,,,,,,,,,,,,,,,,,,,,,,,,,,,,,,,,
,,,,,,,,,,,,,,,2,1,2020-12-07_09h28.06.760,Context_Learning_Pilot,2020.1.3,MacIntel,60,,,,,,,,,,,,0,2,Symb,h,CR,0,2,46,0,1,1,1.8,1,,,,,,,,,,,,,,,,,,,,,,,,,,,,,,,,,media/djnb.png,h,1,0.23994,102,0,102,0,1,,,,,,,,,,,,,,,,,,,,,,,,,,,,,,,,,,,,,,,
,,,,,,,,,,,,,,,2,1,2020-12-07_09h28.06.760,Context_Learning_Pilot,2020.1.3,MacIntel,60,,,,,,,,,,,,2,1,Symb,h,CR,0,0,47,0,1,1,1.8,1,,,,,,,,,,,,,,,,,,,,,,,,,,,,,,,,,media/dinb.png,h,1,2.108245,103,0,103,0,1,,,,,,,,,,,,,,,,,,,,,,,,,,,,,,,,,,,,,,,
,,,,,,,,,,,,,,,2,1,2020-12-07_09h28.06.760,Context_Learning_Pilot,2020.1.3,MacIntel,60,,,,,,,,,,,,0,2,Symb,h,CR,0,0,48,0,1,1,1.8,1,,,,,,,,,,,,,,,,,,,,,,,,,,,,,,,,,media/djnb.png,i,0,2.80397,104,0,104,0,1,,,,,,,,,,,,,,,,,,,,,,,,,,,,,,,,,,,,,,,
,,,,,,,,,,,,,,,2,1,2020-12-07_09h28.06.760,Context_Learning_Pilot,2020.1.3,MacIntel,60,,,,,,,,,,,,0,2,Symb,h,CR,0,1,48,0,1,1,1.8,1,,,,,,,,,,,,,,,,,,,,,,,,,,,,,,,,,media/djnb.png,u,0,0.279965,105,0,105,0,1,,,,,,,,,,,,,,,,,,,,,,,,,,,,,,,,,,,,,,,
,,,,,,,,,,,,,,,2,1,2020-12-07_09h28.06.760,Context_Learning_Pilot,2020.1.3,MacIntel,60,,,,,,,,,,,,0,2,Symb,h,CR,0,2,48,0,1,1,1.8,1,,,,,,,,,,,,,,,,,,,,,,,,,,,,,,,,,media/djnb.png,h,1,0.32899,106,0,106,0,1,,,,,,,,,,,,,,,,,,,,,,,,,,,,,,,,,,,,,,,
,,,,,,,,,,,,,,,2,1,2020-12-07_09h28.06.760,Context_Learning_Pilot,2020.1.3,MacIntel,60,,,,,,,,,,,,3,2,Symb,i,CR,0,0,49,0,1,1,1.8,1,,,,,,,,,,,,,,,,,,,,,,,,,,,,,,,,,media/ddnb.png,i,1,1.9115,107,0,107,0,1,,,,,,,,,,,,,,,,,,,,,,,,,,,,,,,,,,,,,,,
,,,,,,,,,,,,,,,2,1,2020-12-07_09h28.06.760,Context_Learning_Pilot,2020.1.3,MacIntel,60,,,,,,,,,,,,1,2,Symb,l,CR,0,0,50,0,1,1,1.8,1,,,,,,,,,,,,,,,,,,,,,,,,,,,,,,,,,media/dnnb.png,l,1,1.08143,108,0,108,0,1,,,,,,,,,,,,,,,,,,,,,,,,,,,,,,,,,,,,,,,
,,,,,,,,,,,,,,,2,1,2020-12-07_09h28.06.760,Context_Learning_Pilot,2020.1.3,MacIntel,60,,,,,,,,,,,,2,2,Symb,u,CR,0,0,51,0,1,1,1.8,1,,,,,,,,,,,,,,,,,,,,,,,,,,,,,,,,,media/dinb.png,i,0,2.71677,109,0,109,0,1,,,,,,,,,,,,,,,,,,,,,,,,,,,,,,,,,,,,,,,
,,,,,,,,,,,,,,,2,1,2020-12-07_09h28.06.760,Context_Learning_Pilot,2020.1.3,MacIntel,60,,,,,,,,,,,,2,2,Symb,u,CR,0,1,51,0,1,1,1.8,1,,,,,,,,,,,,,,,,,,,,,,,,,,,,,,,,,media/dinb.png,u,1,0.336835,110,0,110,0,1,,,,,,,,,,,,,,,,,,,,,,,,,,,,,,,,,,,,,,,
,,,,,,,,,,,,,,,2,1,2020-12-07_09h28.06.760,Context_Learning_Pilot,2020.1.3,MacIntel,60,,,,,,,,,,,,3,1,Symb,l,CR,0,0,52,0,1,1,1.8,1,,,,,,,,,,,,,,,,,,,,,,,,,,,,,,,,,media/ddnb.png,l,1,3.3026,111,0,111,0,1,,,,,,,,,,,,,,,,,,,,,,,,,,,,,,,,,,,,,,,
,,,,,,,,,,,,,,,2,1,2020-12-07_09h28.06.760,Context_Learning_Pilot,2020.1.3,MacIntel,60,,,,,,,,,,,,0,1,Symb,u,CR,0,0,53,0,1,1,1.8,1,,,,,,,,,,,,,,,,,,,,,,,,,,,,,,,,,media/djnb.png,h,0,2.43162,112,0,112,0,1,,,,,,,,,,,,,,,,,,,,,,,,,,,,,,,,,,,,,,,
,,,,,,,,,,,,,,,2,1,2020-12-07_09h28.06.760,Context_Learning_Pilot,2020.1.3,MacIntel,60,,,,,,,,,,,,0,1,Symb,u,CR,0,1,53,0,1,1,1.8,1,,,,,,,,,,,,,,,,,,,,,,,,,,,,,,,,,media/djnb.png,u,1,0.09952,113,0,113,0,1,,,,,,,,,,,,,,,,,,,,,,,,,,,,,,,,,,,,,,,
,,,,,,,,,,,,,,,2,1,2020-12-07_09h28.06.760,Context_Learning_Pilot,2020.1.3,MacIntel,60,,,,,,,,,,,,0,1,Symb,u,CR,0,0,54,0,1,1,1.8,1,,,,,,,,,,,,,,,,,,,,,,,,,,,,,,,,,media/djnb.png,i,0,5.448015,114,0,114,0,1,,,,,,,,,,,,,,,,,,,,,,,,,,,,,,,,,,,,,,,
,,,,,,,,,,,,,,,2,1,2020-12-07_09h28.06.760,Context_Learning_Pilot,2020.1.3,MacIntel,60,,,,,,,,,,,,0,1,Symb,u,CR,0,1,54,0,1,1,1.8,1,,,,,,,,,,,,,,,,,,,,,,,,,,,,,,,,,media/djnb.png,h,0,0.34996,115,0,115,0,1,,,,,,,,,,,,,,,,,,,,,,,,,,,,,,,,,,,,,,,
,,,,,,,,,,,,,,,2,1,2020-12-07_09h28.06.760,Context_Learning_Pilot,2020.1.3,MacIntel,60,,,,,,,,,,,,0,1,Symb,u,CR,0,2,54,0,1,1,1.8,1,,,,,,,,,,,,,,,,,,,,,,,,,,,,,,,,,media/djnb.png,u,1,0.34503,116,0,116,0,1,,,,,,,,,,,,,,,,,,,,,,,,,,,,,,,,,,,,,,,
,,,,,,,,,,,,,,,2,1,2020-12-07_09h28.06.760,Context_Learning_Pilot,2020.1.3,MacIntel,60,,,,,,,,,,,,1,2,Symb,l,CR,0,0,55,0,1,1,1.8,1,,,,,,,,,,,,,,,,,,,,,,,,,,,,,,,,,media/dnnb.png,l,1,1.25932,117,0,117,0,1,,,,,,,,,,,,,,,,,,,,,,,,,,,,,,,,,,,,,,,
,,,,,,,,,,,,,,,2,1,2020-12-07_09h28.06.760,Context_Learning_Pilot,2020.1.3,MacIntel,60,,,,,,,,,,,,2,1,Symb,h,CR,0,0,56,0,1,1,1.8,1,,,,,,,,,,,,,,,,,,,,,,,,,,,,,,,,,media/dinb.png,u,0,1.124865,118,0,118,0,1,,,,,,,,,,,,,,,,,,,,,,,,,,,,,,,,,,,,,,,
,,,,,,,,,,,,,,,2,1,2020-12-07_09h28.06.760,Context_Learning_Pilot,2020.1.3,MacIntel,60,,,,,,,,,,,,2,1,Symb,h,CR,0,1,56,0,1,1,1.8,1,,,,,,,,,,,,,,,,,,,,,,,,,,,,,,,,,media/dinb.png,i,0,0.25809,119,0,119,0,1,,,,,,,,,,,,,,,,,,,,,,,,,,,,,,,,,,,,,,,
,,,,,,,,,,,,,,,2,1,2020-12-07_09h28.06.760,Context_Learning_Pilot,2020.1.3,MacIntel,60,,,,,,,,,,,,2,1,Symb,h,CR,0,2,56,0,1,1,1.8,1,,,,,,,,,,,,,,,,,,,,,,,,,,,,,,,,,media/dinb.png,h,1,0.104055,120,0,120,0,1,,,,,,,,,,,,,,,,,,,,,,,,,,,,,,,,,,,,,,,
,,,,,,,,,,,,,,,2,1,2020-12-07_09h28.06.760,Context_Learning_Pilot,2020.1.3,MacIntel,60,,,,,,,,,,,,0,2,Symb,h,CR,0,0,57,0,1,1,1.8,1,,,,,,,,,,,,,,,,,,,,,,,,,,,,,,,,,media/djnb.png,u,0,2.22429,121,0,121,0,1,,,,,,,,,,,,,,,,,,,,,,,,,,,,,,,,,,,,,,,
,,,,,,,,,,,,,,,2,1,2020-12-07_09h28.06.760,Context_Learning_Pilot,2020.1.3,MacIntel,60,,,,,,,,,,,,0,2,Symb,h,CR,0,1,57,0,1,1,1.8,1,,,,,,,,,,,,,,,,,,,,,,,,,,,,,,,,,media/djnb.png,h,1,0.103505,122,0,122,0,1,,,,,,,,,,,,,,,,,,,,,,,,,,,,,,,,,,,,,,,
,,,,,,,,,,,,,,,2,1,2020-12-07_09h28.06.760,Context_Learning_Pilot,2020.1.3,MacIntel,60,,,,,,,,,,,,2,1,Symb,h,CR,0,0,58,0,1,1,1.8,1,,,,,,,,,,,,,,,,,,,,,,,,,,,,,,,,,media/dinb.png,h,1,1.816515,123,0,123,0,1,,,,,,,,,,,,,,,,,,,,,,,,,,,,,,,,,,,,,,,
,,,,,,,,,,,,,,,2,1,2020-12-07_09h28.06.760,Context_Learning_Pilot,2020.1.3,MacIntel,60,,,,,,,,,,,,1,2,Symb,l,CR,0,0,59,0,1,1,1.8,1,,,,,,,,,,,,,,,,,,,,,,,,,,,,,,,,,media/dnnb.png,l,1,1.75681,124,0,124,0,1,,,,,,,,,,,,,,,,,,,,,,,,,,,,,,,,,,,,,,,
,,,,,,,,,,,,,,,2,1,2020-12-07_09h28.06.760,Context_Learning_Pilot,2020.1.3,MacIntel,60,,,,,,,,,,,,3,2,Symb,i,CR,0,0,60,0,1,1,1.8,1,,,,,,,,,,,,,,,,,,,,,,,,,,,,,,,,,media/ddnb.png,i,1,1.51266,125,0,125,0,1,,,,,,,,,,,,,,,,,,,,,,,,,,,,,,,,,,,,,,,
,,,,,,,,,,,,,,,2,1,2020-12-07_09h28.06.760,Context_Learning_Pilot,2020.1.3,MacIntel,60,,,,,,,,,,,,3,1,Symb,l,CR,0,0,61,0,1,1,1.8,1,,,,,,,,,,,,,,,,,,,,,,,,,,,,,,,,,media/ddnb.png,l,1,1.256625,126,0,126,0,1,,,,,,,,,,,,,,,,,,,,,,,,,,,,,,,,,,,,,,,
,,,,,,,,,,,,,,,2,1,2020-12-07_09h28.06.760,Context_Learning_Pilot,2020.1.3,MacIntel,60,,,,,,,,,,,,1,1,Symb,i,CR,0,0,62,0,1,1,1.8,1,,,,,,,,,,,,,,,,,,,,,,,,,,,,,,,,,media/dnnb.png,h,0,2.094665,127,0,127,0,1,,,,,,,,,,,,,,,,,,,,,,,,,,,,,,,,,,,,,,,
,,,,,,,,,,,,,,,2,1,2020-12-07_09h28.06.760,Context_Learning_Pilot,2020.1.3,MacIntel,60,,,,,,,,,,,,1,1,Symb,i,CR,0,1,62,0,1,1,1.8,1,,,,,,,,,,,,,,,,,,,,,,,,,,,,,,,,,media/dnnb.png,u,0,0.84184,128,0,128,0,1,,,,,,,,,,,,,,,,,,,,,,,,,,,,,,,,,,,,,,,
,,,,,,,,,,,,,,,2,1,2020-12-07_09h28.06.760,Context_Learning_Pilot,2020.1.3,MacIntel,60,,,,,,,,,,,,1,1,Symb,i,CR,0,2,62,0,1,1,1.8,1,,,,,,,,,,,,,,,,,,,,,,,,,,,,,,,,,media/dnnb.png,i,1,0.329775,129,0,129,0,1,,,,,,,,,,,,,,,,,,,,,,,,,,,,,,,,,,,,,,,
,,,,,,,,,,,,,,,2,1,2020-12-07_09h28.06.760,Context_Learning_Pilot,2020.1.3,MacIntel,60,,,,,,,,,,,,2,2,Symb,u,CR,0,0,63,0,1,1,1.8,1,,,,,,,,,,,,,,,,,,,,,,,,,,,,,,,,,media/dinb.png,u,1,1.21009,130,0,130,0,1,,,,,,,,,,,,,,,,,,,,,,,,,,,,,,,,,,,,,,,
,,,,,,,,,,,,,,,2,1,2020-12-07_09h28.06.760,Context_Learning_Pilot,2020.1.3,MacIntel,60,,,,,,,,,,,,1,1,Symb,i,CR,0,0,64,0,1,1,1.8,1,,,,,,,,,,,,,,,,,,,,,,,,,,,,,,,,,media/dnnb.png,l,0,1.52413,131,0,131,0,1,,,,,,,,,,,,,,,,,,,,,,,,,,,,,,,,,,,,,,,
,,,,,,,,,,,,,,,2,1,2020-12-07_09h28.06.760,Context_Learning_Pilot,2020.1.3,MacIntel,60,,,,,,,,,,,,1,1,Symb,i,CR,0,1,64,0,1,1,1.8,1,,,,,,,,,,,,,,,,,,,,,,,,,,,,,,,,,media/dnnb.png,h,0,0.703115,132,0,132,0,1,,,,,,,,,,,,,,,,,,,,,,,,,,,,,,,,,,,,,,,
,,,,,,,,,,,,,,,2,1,2020-12-07_09h28.06.760,Context_Learning_Pilot,2020.1.3,MacIntel,60,,,,,,,,,,,,1,1,Symb,i,CR,0,2,64,0,1,1,1.8,1,,,,,,,,,,,,,,,,,,,,,,,,,,,,,,,,,media/dnnb.png,u,0,0.358745,133,0,133,0,1,,,,,,,,,,,,,,,,,,,,,,,,,,,,,,,,,,,,,,,
,,,,,,,,,,,,,,,2,1,2020-12-07_09h28.06.760,Context_Learning_Pilot,2020.1.3,MacIntel,60,,,,,,,,,,,,1,1,Symb,i,CR,0,3,64,0,1,1,1.8,1,,,,,,,,,,,,,,,,,,,,,,,,,,,,,,,,,media/dnnb.png,i,1,0.38688,134,0,134,0,1,,,,,,,,,,,,,,,,,,,,,,,,,,,,,,,,,,,,,,,
,,,,,,,,,,,,,,,2,1,2020-12-07_09h28.06.760,Context_Learning_Pilot,2020.1.3,MacIntel,60,,,,,,,,,,,,0,1,Symb,u,CR,0,0,65,0,1,1,1.8,1,,,,,,,,,,,,,,,,,,,,,,,,,,,,,,,,,media/djnb.png,u,1,1.039715,135,0,135,0,1,,,,,,,,,,,,,,,,,,,,,,,,,,,,,,,,,,,,,,,
,,,,,,,,,,,,,,,2,1,2020-12-07_09h28.06.760,Context_Learning_Pilot,2020.1.3,MacIntel,60,,,,,,,,,,,,1,2,Symb,l,CR,0,0,66,0,1,1,1.8,1,,,,,,,,,,,,,,,,,,,,,,,,,,,,,,,,,media/dnnb.png,l,1,1.017675,136,0,136,0,1,,,,,,,,,,,,,,,,,,,,,,,,,,,,,,,,,,,,,,,
,,,,,,,,,,,,,,,2,1,2020-12-07_09h28.06.760,Context_Learning_Pilot,2020.1.3,MacIntel,60,,,,,,,,,,,,0,1,Symb,u,CR,0,0,67,0,1,1,1.8,1,,,,,,,,,,,,,,,,,,,,,,,,,,,,,,,,,media/djnb.png,h,0,1.358135,137,0,137,0,1,,,,,,,,,,,,,,,,,,,,,,,,,,,,,,,,,,,,,,,
,,,,,,,,,,,,,,,2,1,2020-12-07_09h28.06.760,Context_Learning_Pilot,2020.1.3,MacIntel,60,,,,,,,,,,,,0,1,Symb,u,CR,0,1,67,0,1,1,1.8,1,,,,,,,,,,,,,,,,,,,,,,,,,,,,,,,,,media/djnb.png,u,1,0.255025,138,0,138,0,1,,,,,,,,,,,,,,,,,,,,,,,,,,,,,,,,,,,,,,,
,,,,,,,,,,,,,,,2,1,2020-12-07_09h28.06.760,Context_Learning_Pilot,2020.1.3,MacIntel,60,,,,,,,,,,,,2,2,Symb,u,CR,0,0,68,0,1,1,1.8,1,,,,,,,,,,,,,,,,,,,,,,,,,,,,,,,,,media/dinb.png,h,0,4.576585,139,0,139,0,1,,,,,,,,,,,,,,,,,,,,,,,,,,,,,,,,,,,,,,,
,,,,,,,,,,,,,,,2,1,2020-12-07_09h28.06.760,Context_Learning_Pilot,2020.1.3,MacIntel,60,,,,,,,,,,,,2,2,Symb,u,CR,0,1,68,0,1,1,1.8,1,,,,,,,,,,,,,,,,,,,,,,,,,,,,,,,,,media/dinb.png,u,1,0.40318,140,0,140,0,1,,,,,,,,,,,,,,,,,,,,,,,,,,,,,,,,,,,,,,,
,,,,,,,,,,,,,,,2,1,2020-12-07_09h28.06.760,Context_Learning_Pilot,2020.1.3,MacIntel,60,,,,,,,,,,,,0,2,Symb,h,CR,0,0,69,0,1,1,1.8,1,,,,,,,,,,,,,,,,,,,,,,,,,,,,,,,,,media/djnb.png,i,0,6.054615,141,0,141,0,1,,,,,,,,,,,,,,,,,,,,,,,,,,,,,,,,,,,,,,,
,,,,,,,,,,,,,,,2,1,2020-12-07_09h28.06.760,Context_Learning_Pilot,2020.1.3,MacIntel,60,,,,,,,,,,,,0,2,Symb,h,CR,0,1,69,0,1,1,1.8,1,,,,,,,,,,,,,,,,,,,,,,,,,,,,,,,,,media/djnb.png,h,1,0.33048,142,0,142,0,1,,,,,,,,,,,,,,,,,,,,,,,,,,,,,,,,,,,,,,,
,,,,,,,,,,,,,,,2,1,2020-12-07_09h28.06.760,Context_Learning_Pilot,2020.1.3,MacIntel,60,,,,,,,,,,,,3,2,Symb,i,CR,0,0,70,0,1,1,1.8,1,,,,,,,,,,,,,,,,,,,,,,,,,,,,,,,,,media/ddnb.png,u,0,4.71655,143,0,143,0,1,,,,,,,,,,,,,,,,,,,,,,,,,,,,,,,,,,,,,,,
,,,,,,,,,,,,,,,2,1,2020-12-07_09h28.06.760,Context_Learning_Pilot,2020.1.3,MacIntel,60,,,,,,,,,,,,3,2,Symb,i,CR,0,1,70,0,1,1,1.8,1,,,,,,,,,,,,,,,,,,,,,,,,,,,,,,,,,media/ddnb.png,h,0,0.883915,144,0,144,0,1,,,,,,,,,,,,,,,,,,,,,,,,,,,,,,,,,,,,,,,
,,,,,,,,,,,,,,,2,1,2020-12-07_09h28.06.760,Context_Learning_Pilot,2020.1.3,MacIntel,60,,,,,,,,,,,,3,2,Symb,i,CR,0,2,70,0,1,1,1.8,1,,,,,,,,,,,,,,,,,,,,,,,,,,,,,,,,,media/ddnb.png,i,1,0.28904,145,0,145,0,1,,,,,,,,,,,,,,,,,,,,,,,,,,,,,,,,,,,,,,,
,,,,,,,,,,,,,,,2,1,2020-12-07_09h28.06.760,Context_Learning_Pilot,2020.1.3,MacIntel,60,,,,,,,,,,,,3,1,Symb,l,CR,0,0,71,0,1,1,1.8,1,,,,,,,,,,,,,,,,,,,,,,,,,,,,,,,,,media/ddnb.png,l,1,10.084075,146,0,146,0,1,,,,,,,,,,,,,,,,,,,,,,,,,,,,,,,,,,,,,,,
,,,,,,,,,,,,,,,2,1,2020-12-07_09h28.06.760,Context_Learning_Pilot,2020.1.3,MacIntel,60,,,,,,,,,,,,3,2,Symb,i,CR,0,0,72,0,1,1,1.8,1,,,,,,,,,,,,,,,,,,,,,,,,,,,,,,,,,media/ddnb.png,u,0,4.40645,147,0,147,0,1,,,,,,,,,,,,,,,,,,,,,,,,,,,,,,,,,,,,,,,
,,,,,,,,,,,,,,,2,1,2020-12-07_09h28.06.760,Context_Learning_Pilot,2020.1.3,MacIntel,60,,,,,,,,,,,,3,2,Symb,i,CR,0,1,72,0,1,1,1.8,1,,,,,,,,,,,,,,,,,,,,,,,,,,,,,,,,,media/ddnb.png,i,1,1.30025,148,0,148,0,1,,,,,,,,,,,,,,,,,,,,,,,,,,,,,,,,,,,,,,,
,,,,,,,,,,,,,,,2,1,2020-12-07_09h28.06.760,Context_Learning_Pilot,2020.1.3,MacIntel,60,,,,,,,,,,,,0,1,Symb,u,CR,0,0,73,0,1,1,1.8,1,,,,,,,,,,,,,,,,,,,,,,,,,,,,,,,,,media/djnb.png,i,0,3.16012,149,0,149,0,1,,,,,,,,,,,,,,,,,,,,,,,,,,,,,,,,,,,,,,,
,,,,,,,,,,,,,,,2,1,2020-12-07_09h28.06.760,Context_Learning_Pilot,2020.1.3,MacIntel,60,,,,,,,,,,,,0,1,Symb,u,CR,0,1,73,0,1,1,1.8,1,,,,,,,,,,,,,,,,,,,,,,,,,,,,,,,,,media/djnb.png,h,0,0.37104,150,0,150,0,1,,,,,,,,,,,,,,,,,,,,,,,,,,,,,,,,,,,,,,,
,,,,,,,,,,,,,,,2,1,2020-12-07_09h28.06.760,Context_Learning_Pilot,2020.1.3,MacIntel,60,,,,,,,,,,,,0,1,Symb,u,CR,0,2,73,0,1,1,1.8,1,,,,,,,,,,,,,,,,,,,,,,,,,,,,,,,,,media/djnb.png,u,1,0.3544,151,0,151,0,1,,,,,,,,,,,,,,,,,,,,,,,,,,,,,,,,,,,,,,,
,,,,,,,,,,,,,,,2,1,2020-12-07_09h28.06.760,Context_Learning_Pilot,2020.1.3,MacIntel,60,,,,,,,,,,,,1,2,Symb,l,CR,0,0,74,0,1,1,1.8,1,,,,,,,,,,,,,,,,,,,,,,,,,,,,,,,,,media/dnnb.png,l,1,1.492405,152,0,152,0,1,,,,,,,,,,,,,,,,,,,,,,,,,,,,,,,,,,,,,,,
,,,,,,,,,,,,,,,2,1,2020-12-07_09h28.06.760,Context_Learning_Pilot,2020.1.3,MacIntel,60,,,,,,,,,,,,1,1,Symb,i,CR,0,0,75,0,1,1,1.8,1,,,,,,,,,,,,,,,,,,,,,,,,,,,,,,,,,media/dnnb.png,u,0,2.174305,153,0,153,0,1,,,,,,,,,,,,,,,,,,,,,,,,,,,,,,,,,,,,,,,
,,,,,,,,,,,,,,,2,1,2020-12-07_09h28.06.760,Context_Learning_Pilot,2020.1.3,MacIntel,60,,,,,,,,,,,,1,1,Symb,i,CR,0,1,75,0,1,1,1.8,1,,,,,,,,,,,,,,,,,,,,,,,,,,,,,,,,,media/dnnb.png,i,1,0.338455,154,0,154,0,1,,,,,,,,,,,,,,,,,,,,,,,,,,,,,,,,,,,,,,,
,,,,,,,,,,,,,,,2,1,2020-12-07_09h28.06.760,Context_Learning_Pilot,2020.1.3,MacIntel,60,,,,,,,,,,,,2,1,Symb,h,CR,0,0,76,0,1,1,1.8,1,,,,,,,,,,,,,,,,,,,,,,,,,,,,,,,,,media/dinb.png,h,1,0.78427,155,0,155,0,1,,,,,,,,,,,,,,,,,,,,,,,,,,,,,,,,,,,,,,,
,,,,,,,,,,,,,,,2,1,2020-12-07_09h28.06.760,Context_Learning_Pilot,2020.1.3,MacIntel,60,,,,,,,,,,,,0,2,Symb,h,CR,0,0,77,0,1,1,1.8,1,,,,,,,,,,,,,,,,,,,,,,,,,,,,,,,,,media/djnb.png,h,1,1.72714,156,0,156,0,1,,,,,,,,,,,,,,,,,,,,,,,,,,,,,,,,,,,,,,,
,,,,,,,,,,,,,,,2,1,2020-12-07_09h28.06.760,Context_Learning_Pilot,2020.1.3,MacIntel,60,,,,,,,,,,,,2,2,Symb,u,CR,0,0,78,0,1,1,1.8,1,,,,,,,,,,,,,,,,,,,,,,,,,,,,,,,,,media/dinb.png,u,1,2.89517,157,0,157,0,1,,,,,,,,,,,,,,,,,,,,,,,,,,,,,,,,,,,,,,,
,,,,,,,,,,,,,,,2,1,2020-12-07_09h28.06.760,Context_Learning_Pilot,2020.1.3,MacIntel,60,,,,,,,,,,,,3,1,Symb,l,CR,0,0,79,0,1,1,1.8,1,,,,,,,,,,,,,,,,,,,,,,,,,,,,,,,,,media/ddnb.png,l,1,1.288595,158,0,158,0,1,,,,,,,,,,,,,,,,,,,,,,,,,,,,,,,,,,,,,,,
,,,,,,,,,,,,,,,2,1,2020-12-07_09h28.06.760,Context_Learning_Pilot,2020.1.3,MacIntel,60,,,,,,,,,,,,2,2,Symb,u,CR,0,0,80,0,1,1,1.8,1,,,,,,,,,,,,,,,,,,,,,,,,,,,,,,,,,media/dinb.png,u,1,2.061325,159,0,159,0,1,,,,,,,,,,,,,,,,,,,,,,,,,,,,,,,,,,,,,,,
,,,,,,,,,,,,,,,2,1,2020-12-07_09h28.06.760,Context_Learning_Pilot,2020.1.3,MacIntel,60,,,,,,,,,,,,1,2,Symb,l,CR,0,0,81,0,1,1,1.8,1,,,,,,,,,,,,,,,,,,,,,,,,,,,,,,,,,media/dnnb.png,l,1,1.670275,160,0,160,0,1,,,,,,,,,,,,,,,,,,,,,,,,,,,,,,,,,,,,,,,
,,,,,,,,,,,,,,,2,1,2020-12-07_09h28.06.760,Context_Learning_Pilot,2020.1.3,MacIntel,60,,,,,,,,,,,,0,2,Symb,h,CR,0,0,82,0,1,1,1.8,1,,,,,,,,,,,,,,,,,,,,,,,,,,,,,,,,,media/djnb.png,i,0,1.353815,161,0,161,0,1,,,,,,,,,,,,,,,,,,,,,,,,,,,,,,,,,,,,,,,
,,,,,,,,,,,,,,,2,1,2020-12-07_09h28.06.760,Context_Learning_Pilot,2020.1.3,MacIntel,60,,,,,,,,,,,,0,2,Symb,h,CR,0,1,82,0,1,1,1.8,1,,,,,,,,,,,,,,,,,,,,,,,,,,,,,,,,,media/djnb.png,h,1,0.346895,162,0,162,0,1,,,,,,,,,,,,,,,,,,,,,,,,,,,,,,,,,,,,,,,
,,,,,,,,,,,,,,,2,1,2020-12-07_09h28.06.760,Context_Learning_Pilot,2020.1.3,MacIntel,60,,,,,,,,,,,,2,1,Symb,h,CR,0,0,83,0,1,1,1.8,1,,,,,,,,,,,,,,,,,,,,,,,,,,,,,,,,,media/dinb.png,h,1,1.279635,163,0,163,0,1,,,,,,,,,,,,,,,,,,,,,,,,,,,,,,,,,,,,,,,
,,,,,,,,,,,,,,,2,1,2020-12-07_09h28.06.760,Context_Learning_Pilot,2020.1.3,MacIntel,60,,,,,,,,,,,,3,1,Symb,l,CR,0,0,84,0,1,1,1.8,1,,,,,,,,,,,,,,,,,,,,,,,,,,,,,,,,,media/ddnb.png,l,1,2.657725,164,0,164,0,1,,,,,,,,,,,,,,,,,,,,,,,,,,,,,,,,,,,,,,,
,,,,,,,,,,,,,,,2,1,2020-12-07_09h28.06.760,Context_Learning_Pilot,2020.1.3,MacIntel,60,,,,,,,,,,,,2,1,Symb,h,CR,0,0,85,0,1,1,1.8,1,,,,,,,,,,,,,,,,,,,,,,,,,,,,,,,,,media/dinb.png,u,0,1.276365,165,0,165,0,1,,,,,,,,,,,,,,,,,,,,,,,,,,,,,,,,,,,,,,,
,,,,,,,,,,,,,,,2,1,2020-12-07_09h28.06.760,Context_Learning_Pilot,2020.1.3,MacIntel,60,,,,,,,,,,,,2,1,Symb,h,CR,0,1,85,0,1,1,1.8,1,,,,,,,,,,,,,,,,,,,,,,,,,,,,,,,,,media/dinb.png,i,0,0.425335,166,0,166,0,1,,,,,,,,,,,,,,,,,,,,,,,,,,,,,,,,,,,,,,,
,,,,,,,,,,,,,,,2,1,2020-12-07_09h28.06.760,Context_Learning_Pilot,2020.1.3,MacIntel,60,,,,,,,,,,,,2,1,Symb,h,CR,0,2,85,0,1,1,1.8,1,,,,,,,,,,,,,,,,,,,,,,,,,,,,,,,,,media/dinb.png,h,1,0.318725,167,0,167,0,1,,,,,,,,,,,,,,,,,,,,,,,,,,,,,,,,,,,,,,,
,,,,,,,,,,,,,,,2,1,2020-12-07_09h28.06.760,Context_Learning_Pilot,2020.1.3,MacIntel,60,,,,,,,,,,,,0,2,Symb,h,CR,0,0,86,0,1,1,1.8,1,,,,,,,,,,,,,,,,,,,,,,,,,,,,,,,,,media/djnb.png,u,0,2.253445,168,0,168,0,1,,,,,,,,,,,,,,,,,,,,,,,,,,,,,,,,,,,,,,,
,,,,,,,,,,,,,,,2,1,2020-12-07_09h28.06.760,Context_Learning_Pilot,2020.1.3,MacIntel,60,,,,,,,,,,,,0,2,Symb,h,CR,0,1,86,0,1,1,1.8,1,,,,,,,,,,,,,,,,,,,,,,,,,,,,,,,,,media/djnb.png,i,0,0.266985,169,0,169,0,1,,,,,,,,,,,,,,,,,,,,,,,,,,,,,,,,,,,,,,,
,,,,,,,,,,,,,,,2,1,2020-12-07_09h28.06.760,Context_Learning_Pilot,2020.1.3,MacIntel,60,,,,,,,,,,,,0,2,Symb,h,CR,0,2,86,0,1,1,1.8,1,,,,,,,,,,,,,,,,,,,,,,,,,,,,,,,,,media/djnb.png,h,1,0.281295,170,0,170,0,1,,,,,,,,,,,,,,,,,,,,,,,,,,,,,,,,,,,,,,,
,,,,,,,,,,,,,,,2,1,2020-12-07_09h28.06.760,Context_Learning_Pilot,2020.1.3,MacIntel,60,,,,,,,,,,,,1,2,Symb,l,CR,0,0,87,0,1,1,1.8,1,,,,,,,,,,,,,,,,,,,,,,,,,,,,,,,,,media/dnnb.png,l,1,1.91734,171,0,171,0,1,,,,,,,,,,,,,,,,,,,,,,,,,,,,,,,,,,,,,,,
,,,,,,,,,,,,,,,2,1,2020-12-07_09h28.06.760,Context_Learning_Pilot,2020.1.3,MacIntel,60,,,,,,,,,,,,1,1,Symb,i,CR,0,0,88,0,1,1,1.8,1,,,,,,,,,,,,,,,,,,,,,,,,,,,,,,,,,media/dnnb.png,i,1,1.620715,172,0,172,0,1,,,,,,,,,,,,,,,,,,,,,,,,,,,,,,,,,,,,,,,
,,,,,,,,,,,,,,,2,1,2020-12-07_09h28.06.760,Context_Learning_Pilot,2020.1.3,MacIntel,60,,,,,,,,,,,,0,1,Symb,u,CR,0,0,89,0,1,1,1.8,1,,,,,,,,,,,,,,,,,,,,,,,,,,,,,,,,,media/djnb.png,h,0,1.157885,173,0,173,0,1,,,,,,,,,,,,,,,,,,,,,,,,,,,,,,,,,,,,,,,
,,,,,,,,,,,,,,,2,1,2020-12-07_09h28.06.760,Context_Learning_Pilot,2020.1.3,MacIntel,60,,,,,,,,,,,,0,1,Symb,u,CR,0,1,89,0,1,1,1.8,1,,,,,,,,,,,,,,,,,,,,,,,,,,,,,,,,,media/djnb.png,u,1,0.288105,174,0,174,0,1,,,,,,,,,,,,,,,,,,,,,,,,,,,,,,,,,,,,,,,
,,,,,,,,,,,,,,,2,1,2020-12-07_09h28.06.760,Context_Learning_Pilot,2020.1.3,MacIntel,60,,,,,,,,,,,,1,1,Symb,i,CR,0,0,90,0,1,1,1.8,1,,,,,,,,,,,,,,,,,,,,,,,,,,,,,,,,,media/dnnb.png,i,1,1.934905,175,0,175,0,1,,,,,,,,,,,,,,,,,,,,,,,,,,,,,,,,,,,,,,,
,,,,,,,,,,,,,,,2,1,2020-12-07_09h28.06.760,Context_Learning_Pilot,2020.1.3,MacIntel,60,,,,,,,,,,,,2,2,Symb,u,CR,0,0,91,0,1,1,1.8,1,,,,,,,,,,,,,,,,,,,,,,,,,,,,,,,,,media/dinb.png,h,0,2.383105,176,0,176,0,1,,,,,,,,,,,,,,,,,,,,,,,,,,,,,,,,,,,,,,,
,,,,,,,,,,,,,,,2,1,2020-12-07_09h28.06.760,Context_Learning_Pilot,2020.1.3,MacIntel,60,,,,,,,,,,,,2,2,Symb,u,CR,0,1,91,0,1,1,1.8,1,,,,,,,,,,,,,,,,,,,,,,,,,,,,,,,,,media/dinb.png,u,1,0.37041,177,0,177,0,1,,,,,,,,,,,,,,,,,,,,,,,,,,,,,,,,,,,,,,,
,,,,,,,,,,,,,,,2,1,2020-12-07_09h28.06.760,Context_Learning_Pilot,2020.1.3,MacIntel,60,,,,,,,,,,,,3,2,Symb,i,CR,0,0,92,0,1,1,1.8,1,,,,,,,,,,,,,,,,,,,,,,,,,,,,,,,,,media/ddnb.png,i,1,2.52634,178,0,178,0,1,,,,,,,,,,,,,,,,,,,,,,,,,,,,,,,,,,,,,,,
,,,,,,,,,,,,,,,2,1,2020-12-07_09h28.06.760,Context_Learning_Pilot,2020.1.3,MacIntel,60,,,,,,,,,,,,3,2,Symb,i,CR,0,0,93,0,1,1,1.8,1,,,,,,,,,,,,,,,,,,,,,,,,,,,,,,,,,media/ddnb.png,i,1,0.60385,179,0,179,0,1,,,,,,,,,,,,,,,,,,,,,,,,,,,,,,,,,,,,,,,
,,,,,,,,,,,,,,,2,1,2020-12-07_09h28.06.760,Context_Learning_Pilot,2020.1.3,MacIntel,60,,,,,,,,,,,,3,1,Symb,l,CR,0,0,94,0,1,1,1.8,1,,,,,,,,,,,,,,,,,,,,,,,,,,,,,,,,,media/ddnb.png,l,1,0.899645,180,0,180,0,1,,,,,,,,,,,,,,,,,,,,,,,,,,,,,,,,,,,,,,,
,,,,,,,,,,,,,,,2,1,2020-12-07_09h28.06.760,Context_Learning_Pilot,2020.1.3,MacIntel,60,,,,,,,,,,,,0,1,Symb,u,CR,0,0,95,0,1,1,1.8,1,,,,,,,,,,,,,,,,,,,,,,,,,,,,,,,,,media/djnb.png,u,1,4.888745,181,0,181,0,1,,,,,,,,,,,,,,,,,,,,,,,,,,,,,,,,,,,,,,,
,,,,,,,,,,,,,,,2,1,2020-12-07_09h28.06.760,Context_Learning_Pilot,2020.1.3,MacIntel,60,,,,,,,,,,,,3,1,Symb,l,CR,0,0,96,0,1,1,1.8,1,,,,,,,,,,,,,,,,,,,,,,,,,,,,,,,,,media/ddnb.png,l,1,1.16249,182,0,182,0,1,,,,,,,,,,,,,,,,,,,,,,,,,,,,,,,,,,,,,,,
,,,,,,,,,,,,,,,2,1,2020-12-07_09h28.06.760,Context_Learning_Pilot,2020.1.3,MacIntel,60,,,,,,,,,,,,0,1,Symb,u,CR,0,0,97,0,1,1,1.8,1,,,,,,,,,,,,,,,,,,,,,,,,,,,,,,,,,media/djnb.png,h,0,2.37425,183,0,183,0,1,,,,,,,,,,,,,,,,,,,,,,,,,,,,,,,,,,,,,,,
,,,,,,,,,,,,,,,2,1,2020-12-07_09h28.06.760,Context_Learning_Pilot,2020.1.3,MacIntel,60,,,,,,,,,,,,0,1,Symb,u,CR,0,1,97,0,1,1,1.8,1,,,,,,,,,,,,,,,,,,,,,,,,,,,,,,,,,media/djnb.png,i,0,0.35541,184,0,184,0,1,,,,,,,,,,,,,,,,,,,,,,,,,,,,,,,,,,,,,,,
,,,,,,,,,,,,,,,2,1,2020-12-07_09h28.06.760,Context_Learning_Pilot,2020.1.3,MacIntel,60,,,,,,,,,,,,0,1,Symb,u,CR,0,2,97,0,1,1,1.8,1,,,,,,,,,,,,,,,,,,,,,,,,,,,,,,,,,media/djnb.png,u,1,0.285425,185,0,185,0,1,,,,,,,,,,,,,,,,,,,,,,,,,,,,,,,,,,,,,,,
,,,,,,,,,,,,,,,2,1,2020-12-07_09h28.06.760,Context_Learning_Pilot,2020.1.3,MacIntel,60,,,,,,,,,,,,0,2,Symb,h,CR,0,0,98,0,1,1,1.8,1,,,,,,,,,,,,,,,,,,,,,,,,,,,,,,,,,media/djnb.png,i,0,1.089315,186,0,186,0,1,,,,,,,,,,,,,,,,,,,,,,,,,,,,,,,,,,,,,,,
,,,,,,,,,,,,,,,2,1,2020-12-07_09h28.06.760,Context_Learning_Pilot,2020.1.3,MacIntel,60,,,,,,,,,,,,0,2,Symb,h,CR,0,1,98,0,1,1,1.8,1,,,,,,,,,,,,,,,,,,,,,,,,,,,,,,,,,media/djnb.png,h,1,0.279175,187,0,187,0,1,,,,,,,,,,,,,,,,,,,,,,,,,,,,,,,,,,,,,,,
,,,,,,,,,,,,,,,2,1,2020-12-07_09h28.06.760,Context_Learning_Pilot,2020.1.3,MacIntel,60,,,,,,,,,,,,1,1,Symb,i,CR,0,0,99,0,1,1,1.8,1,,,,,,,,,,,,,,,,,,,,,,,,,,,,,,,,,media/dnnb.png,i,1,2.198165,188,0,188,0,1,,,,,,,,,,,,,,,,,,,,,,,,,,,,,,,,,,,,,,,
,,,,,,,,,,,,,,,2,1,2020-12-07_09h28.06.760,Context_Learning_Pilot,2020.1.3,MacIntel,60,,,,,,,,,,,,2,2,Symb,u,CR,0,0,100,0,1,1,1.8,1,,,,,,,,,,,,,,,,,,,,,,,,,,,,,,,,,media/dinb.png,u,1,6.979255,189,0,189,0,1,,,,,,,,,,,,,,,,,,,,,,,,,,,,,,,,,,,,,,,
,,,,,,,,,,,,,,,2,1,2020-12-07_09h28.06.760,Context_Learning_Pilot,2020.1.3,MacIntel,60,,,,,,,,,,,,2,1,Symb,h,CR,0,0,101,0,1,1,1.8,1,,,,,,,,,,,,,,,,,,,,,,,,,,,,,,,,,media/dinb.png,h,1,2.704275,190,0,190,0,1,,,,,,,,,,,,,,,,,,,,,,,,,,,,,,,,,,,,,,,
,,,,,,,,,,,,,,,2,1,2020-12-07_09h28.06.760,Context_Learning_Pilot,2020.1.3,MacIntel,60,,,,,,,,,,,,1,1,Symb,i,CR,0,0,102,0,1,1,1.8,1,,,,,,,,,,,,,,,,,,,,,,,,,,,,,,,,,media/dnnb.png,i,1,2.199055,191,0,191,0,1,,,,,,,,,,,,,,,,,,,,,,,,,,,,,,,,,,,,,,,
,,,,,,,,,,,,,,,2,1,2020-12-07_09h28.06.760,Context_Learning_Pilot,2020.1.3,MacIntel,60,,,,,,,,,,,,3,2,Symb,i,CR,0,0,103,0,1,1,1.8,1,,,,,,,,,,,,,,,,,,,,,,,,,,,,,,,,,media/ddnb.png,i,1,2.51109,192,0,192,0,1,,,,,,,,,,,,,,,,,,,,,,,,,,,,,,,,,,,,,,,
,,,,,,,,,,,,,,,2,1,2020-12-07_09h28.06.760,Context_Learning_Pilot,2020.1.3,MacIntel,60,,,,,,,,,,,,3,1,Symb,l,CR,0,0,104,0,1,1,1.8,1,,,,,,,,,,,,,,,,,,,,,,,,,,,,,,,,,media/ddnb.png,l,1,2.99721,193,0,193,0,1,,,,,,,,,,,,,,,,,,,,,,,,,,,,,,,,,,,,,,,
,,,,,,,,,,,,,,,2,1,2020-12-07_09h28.06.760,Context_Learning_Pilot,2020.1.3,MacIntel,60,,,,,,,,,,,,2,1,Symb,h,CR,0,0,105,0,1,1,1.8,1,,,,,,,,,,,,,,,,,,,,,,,,,,,,,,,,,media/dinb.png,h,1,3.8736,194,0,194,0,1,,,,,,,,,,,,,,,,,,,,,,,,,,,,,,,,,,,,,,,
,,,,,,,,,,,,,,,2,1,2020-12-07_09h28.06.760,Context_Learning_Pilot,2020.1.3,MacIntel,60,,,,,,,,,,,,2,2,Symb,u,CR,0,0,106,0,1,1,1.8,1,,,,,,,,,,,,,,,,,,,,,,,,,,,,,,,,,media/dinb.png,i,0,1.813005,195,0,195,0,1,,,,,,,,,,,,,,,,,,,,,,,,,,,,,,,,,,,,,,,
,,,,,,,,,,,,,,,2,1,2020-12-07_09h28.06.760,Context_Learning_Pilot,2020.1.3,MacIntel,60,,,,,,,,,,,,2,2,Symb,u,CR,0,1,106,0,1,1,1.8,1,,,,,,,,,,,,,,,,,,,,,,,,,,,,,,,,,media/dinb.png,u,1,0.30583,196,0,196,0,1,,,,,,,,,,,,,,,,,,,,,,,,,,,,,,,,,,,,,,,
,,,,,,,,,,,,,,,2,1,2020-12-07_09h28.06.760,Context_Learning_Pilot,2020.1.3,MacIntel,60,,,,,,,,,,,,0,1,Symb,u,CR,0,0,107,0,1,1,1.8,1,,,,,,,,,,,,,,,,,,,,,,,,,,,,,,,,,media/djnb.png,u,1,1.789975,197,0,197,0,1,,,,,,,,,,,,,,,,,,,,,,,,,,,,,,,,,,,,,,,
,,,,,,,,,,,,,,,2,1,2020-12-07_09h28.06.760,Context_Learning_Pilot,2020.1.3,MacIntel,60,,,,,,,,,,,,3,2,Symb,i,CR,0,0,108,0,1,1,1.8,1,,,,,,,,,,,,,,,,,,,,,,,,,,,,,,,,,media/ddnb.png,h,0,2.80911,198,0,198,0,1,,,,,,,,,,,,,,,,,,,,,,,,,,,,,,,,,,,,,,,
,,,,,,,,,,,,,,,2,1,2020-12-07_09h28.06.760,Context_Learning_Pilot,2020.1.3,MacIntel,60,,,,,,,,,,,,3,2,Symb,i,CR,0,1,108,0,1,1,1.8,1,,,,,,,,,,,,,,,,,,,,,,,,,,,,,,,,,media/ddnb.png,i,1,0.25472,199,0,199,0,1,,,,,,,,,,,,,,,,,,,,,,,,,,,,,,,,,,,,,,,
,,,,,,,,,,,,,,,2,1,2020-12-07_09h28.06.760,Context_Learning_Pilot,2020.1.3,MacIntel,60,,,,,,,,,,,,0,2,Symb,h,CR,0,0,109,0,1,1,1.8,1,,,,,,,,,,,,,,,,,,,,,,,,,,,,,,,,,media/djnb.png,h,1,2.13517,200,0,200,0,1,,,,,,,,,,,,,,,,,,,,,,,,,,,,,,,,,,,,,,,
,,,,,,,,,,,,,,,2,1,2020-12-07_09h28.06.760,Context_Learning_Pilot,2020.1.3,MacIntel,60,,,,,,,,,,,,1,2,Symb,l,CR,0,0,110,0,1,1,1.8,1,,,,,,,,,,,,,,,,,,,,,,,,,,,,,,,,,media/dnnb.png,l,1,1.52845,201,0,201,0,1,,,,,,,,,,,,,,,,,,,,,,,,,,,,,,,,,,,,,,,
,,,,,,,,,,,,,,,2,1,2020-12-07_09h28.06.760,Context_Learning_Pilot,2020.1.3,MacIntel,60,,,,,,,,,,,,1,2,Symb,l,CR,0,0,111,0,1,1,1.8,1,,,,,,,,,,,,,,,,,,,,,,,,,,,,,,,,,media/dnnb.png,l,1,2.584405,202,0,202,0,1,,,,,,,,,,,,,,,,,,,,,,,,,,,,,,,,,,,,,,,
,,,,,,,,,,,,,,,2,1,2020-12-07_09h28.06.760,Context_Learning_Pilot,2020.1.3,MacIntel,60,,,,,,,,,,,,1,1,Symb,i,CR,0,0,112,0,1,1,1.8,1,,,,,,,,,,,,,,,,,,,,,,,,,,,,,,,,,media/dnnb.png,i,1,4.955865,203,0,203,0,1,,,,,,,,,,,,,,,,,,,,,,,,,,,,,,,,,,,,,,,
,,,,,,,,,,,,,,,2,1,2020-12-07_09h28.06.760,Context_Learning_Pilot,2020.1.3,MacIntel,60,,,,,,,,,,,,2,2,Symb,u,CR,0,0,113,0,1,1,1.8,1,,,,,,,,,,,,,,,,,,,,,,,,,,,,,,,,,media/dinb.png,u,1,6.8884,204,0,204,0,1,,,,,,,,,,,,,,,,,,,,,,,,,,,,,,,,,,,,,,,
,,,,,,,,,,,,,,,2,1,2020-12-07_09h28.06.760,Context_Learning_Pilot,2020.1.3,MacIntel,60,,,,,,,,,,,,0,2,Symb,h,CR,0,0,114,0,1,1,1.8,1,,,,,,,,,,,,,,,,,,,,,,,,,,,,,,,,,media/djnb.png,h,1,1.19153,205,0,205,0,1,,,,,,,,,,,,,,,,,,,,,,,,,,,,,,,,,,,,,,,
,,,,,,,,,,,,,,,2,1,2020-12-07_09h28.06.760,Context_Learning_Pilot,2020.1.3,MacIntel,60,,,,,,,,,,,,2,1,Symb,h,CR,0,0,115,0,1,1,1.8,1,,,,,,,,,,,,,,,,,,,,,,,,,,,,,,,,,media/dinb.png,h,1,6.428905,206,0,206,0,1,,,,,,,,,,,,,,,,,,,,,,,,,,,,,,,,,,,,,,,
,,,,,,,,,,,,,,,2,1,2020-12-07_09h28.06.760,Context_Learning_Pilot,2020.1.3,MacIntel,60,,,,,,,,,,,,1,2,Symb,l,CR,0,0,116,0,1,1,1.8,1,,,,,,,,,,,,,,,,,,,,,,,,,,,,,,,,,media/dnnb.png,l,1,1.145215,207,0,207,0,1,,,,,,,,,,,,,,,,,,,,,,,,,,,,,,,,,,,,,,,
,,,,,,,,,,,,,,,2,1,2020-12-07_09h28.06.760,Context_Learning_Pilot,2020.1.3,MacIntel,60,,,,,,,,,,,,3,1,Symb,l,CR,0,0,117,0,1,1,1.8,1,,,,,,,,,,,,,,,,,,,,,,,,,,,,,,,,,media/ddnb.png,l,1,1.126715,208,0,208,0,1,,,,,,,,,,,,,,,,,,,,,,,,,,,,,,,,,,,,,,,
,,,,,,,,,,,,,,,2,1,2020-12-07_09h28.06.760,Context_Learning_Pilot,2020.1.3,MacIntel,60,,,,,,,,,,,,3,2,Symb,i,CR,0,0,118,0,1,1,1.8,1,,,,,,,,,,,,,,,,,,,,,,,,,,,,,,,,,media/ddnb.png,i,1,2.524615,209,0,209,0,1,,,,,,,,,,,,,,,,,,,,,,,,,,,,,,,,,,,,,,,
,,,,,,,,,,,,,,,2,1,2020-12-07_09h28.06.760,Context_Learning_Pilot,2020.1.3,MacIntel,60,,,,,,,,,,,,0,1,Symb,u,CR,0,0,119,0,1,1,1.8,1,,,,,,,,,,,,,,,,,,,,,,,,,,,,,,,,,media/djnb.png,u,1,8.46771,210,0,210,0,1,,,,,,,,,,,,,,,,,,,,,,,,,,,,,,,,,,,,,,,
,,,,,,,,,,,,,,,2,1,2020-12-07_09h28.06.760,Context_Learning_Pilot,2020.1.3,MacIntel,60,,,,,,,,,,,,0,2,Symb,h,CR,0,0,120,0,1,1,1.8,1,,,,,,,,,,,,,,,,,,,,,,,,,,,,,,,,,media/djnb.png,h,1,0.785115,211,0,211,0,1,,,,,,,,,,,,,,,,,,,,,,,,,,,,,,,,,,,,,,,
,,,,,,,,,,,,,,,2,1,2020-12-07_09h28.06.760,Context_Learning_Pilot,2020.1.3,MacIntel,60,,,,,,,,,,,,0,2,Symb,h,CR,0,0,121,0,1,1,1.8,1,,,,,,,,,,,,,,,,,,,,,,,,,,,,,,,,,media/djnb.png,h,1,0.89297,212,0,212,0,1,,,,,,,,,,,,,,,,,,,,,,,,,,,,,,,,,,,,,,,
,,,,,,,,,,,,,,,2,1,2020-12-07_09h28.06.760,Context_Learning_Pilot,2020.1.3,MacIntel,60,,,,,,,,,,,,1,1,Symb,i,CR,0,0,122,0,1,1,1.8,1,,,,,,,,,,,,,,,,,,,,,,,,,,,,,,,,,media/dnnb.png,i,1,1.19801,213,0,213,0,1,,,,,,,,,,,,,,,,,,,,,,,,,,,,,,,,,,,,,,,
,,,,,,,,,,,,,,,2,1,2020-12-07_09h28.06.760,Context_Learning_Pilot,2020.1.3,MacIntel,60,,,,,,,,,,,,3,2,Symb,i,CR,0,0,123,0,1,1,1.8,1,,,,,,,,,,,,,,,,,,,,,,,,,,,,,,,,,media/ddnb.png,i,1,3.321255,214,0,214,0,1,,,,,,,,,,,,,,,,,,,,,,,,,,,,,,,,,,,,,,,
,,,,,,,,,,,,,,,2,1,2020-12-07_09h28.06.760,Context_Learning_Pilot,2020.1.3,MacIntel,60,,,,,,,,,,,,3,1,Symb,l,CR,0,0,124,0,1,1,1.8,1,,,,,,,,,,,,,,,,,,,,,,,,,,,,,,,,,media/ddnb.png,i,0,0.92489,215,0,215,0,1,,,,,,,,,,,,,,,,,,,,,,,,,,,,,,,,,,,,,,,
,,,,,,,,,,,,,,,2,1,2020-12-07_09h28.06.760,Context_Learning_Pilot,2020.1.3,MacIntel,60,,,,,,,,,,,,3,1,Symb,l,CR,0,1,124,0,1,1,1.8,1,,,,,,,,,,,,,,,,,,,,,,,,,,,,,,,,,media/ddnb.png,l,1,0.396755,216,0,216,0,1,,,,,,,,,,,,,,,,,,,,,,,,,,,,,,,,,,,,,,,
,,,,,,,,,,,,,,,2,1,2020-12-07_09h28.06.760,Context_Learning_Pilot,2020.1.3,MacIntel,60,,,,,,,,,,,,2,2,Symb,u,CR,0,0,125,0,1,1,1.8,1,,,,,,,,,,,,,,,,,,,,,,,,,,,,,,,,,media/dinb.png,u,1,2.34179,217,0,217,0,1,,,,,,,,,,,,,,,,,,,,,,,,,,,,,,,,,,,,,,,
,,,,,,,,,,,,,,,2,1,2020-12-07_09h28.06.760,Context_Learning_Pilot,2020.1.3,MacIntel,60,,,,,,,,,,,,3,1,Symb,l,CR,0,0,126,0,1,1,1.8,1,,,,,,,,,,,,,,,,,,,,,,,,,,,,,,,,,media/ddnb.png,i,0,1.16389,218,0,218,0,1,,,,,,,,,,,,,,,,,,,,,,,,,,,,,,,,,,,,,,,
,,,,,,,,,,,,,,,2,1,2020-12-07_09h28.06.760,Context_Learning_Pilot,2020.1.3,MacIntel,60,,,,,,,,,,,,3,1,Symb,l,CR,0,1,126,0,1,1,1.8,1,,,,,,,,,,,,,,,,,,,,,,,,,,,,,,,,,media/ddnb.png,l,1,0.218905,219,0,219,0,1,,,,,,,,,,,,,,,,,,,,,,,,,,,,,,,,,,,,,,,
,,,,,,,,,,,,,,,2,1,2020-12-07_09h28.06.760,Context_Learning_Pilot,2020.1.3,MacIntel,60,,,,,,,,,,,,0,1,Symb,u,CR,0,0,127,0,1,1,1.8,1,,,,,,,,,,,,,,,,,,,,,,,,,,,,,,,,,media/djnb.png,u,1,2.962645,220,0,220,0,1,,,,,,,,,,,,,,,,,,,,,,,,,,,,,,,,,,,,,,,
,,,,,,,,,,,,,,,2,1,2020-12-07_09h28.06.760,Context_Learning_Pilot,2020.1.3,MacIntel,60,,,,,,,,,,,,3,2,Symb,i,CR,0,0,128,0,1,1,1.8,1,,,,,,,,,,,,,,,,,,,,,,,,,,,,,,,,,media/ddnb.png,i,1,9.31909,221,0,221,0,1,,,,,,,,,,,,,,,,,,,,,,,,,,,,,,,,,,,,,,,
,,,,,,,,,,,,,,,2,1,2020-12-07_09h28.06.760,Context_Learning_Pilot,2020.1.3,MacIntel,60,,,,,,,,,,,,1,2,Symb,l,CR,0,0,129,0,1,1,1.8,1,,,,,,,,,,,,,,,,,,,,,,,,,,,,,,,,,media/dnnb.png,l,1,0.70277,222,0,222,0,1,,,,,,,,,,,,,,,,,,,,,,,,,,,,,,,,,,,,,,,
,,,,,,,,,,,,,,,2,1,2020-12-07_09h28.06.760,Context_Learning_Pilot,2020.1.3,MacIntel,60,,,,,,,,,,,,2,1,Symb,h,CR,0,0,130,0,1,1,1.8,1,,,,,,,,,,,,,,,,,,,,,,,,,,,,,,,,,media/dinb.png,h,1,2.2056,223,0,223,0,1,,,,,,,,,,,,,,,,,,,,,,,,,,,,,,,,,,,,,,,
,,,,,,,,,,,,,,,2,1,2020-12-07_09h28.06.760,Context_Learning_Pilot,2020.1.3,MacIntel,60,,,,,,,,,,,,1,1,Symb,i,CR,0,0,131,0,1,1,1.8,1,,,,,,,,,,,,,,,,,,,,,,,,,,,,,,,,,media/dnnb.png,i,1,1.70944,224,0,224,0,1,,,,,,,,,,,,,,,,,,,,,,,,,,,,,,,,,,,,,,,
,,,,,,,,,,,,,,,2,1,2020-12-07_09h28.06.760,Context_Learning_Pilot,2020.1.3,MacIntel,60,,,,,,,,,,,,0,1,Symb,u,CR,0,0,132,0,1,1,1.8,1,,,,,,,,,,,,,,,,,,,,,,,,,,,,,,,,,media/djnb.png,u,1,3.973035,225,0,225,0,1,,,,,,,,,,,,,,,,,,,,,,,,,,,,,,,,,,,,,,,
,,,,,,,,,,,,,,,2,1,2020-12-07_09h28.06.760,Context_Learning_Pilot,2020.1.3,MacIntel,60,,,,,,,,,,,,2,1,Symb,h,CR,0,0,133,0,1,1,1.8,1,,,,,,,,,,,,,,,,,,,,,,,,,,,,,,,,,media/dinb.png,h,1,1.2945,226,0,226,0,1,,,,,,,,,,,,,,,,,,,,,,,,,,,,,,,,,,,,,,,
,,,,,,,,,,,,,,,2,1,2020-12-07_09h28.06.760,Context_Learning_Pilot,2020.1.3,MacIntel,60,,,,,,,,,,,,1,2,Symb,l,RT,0,0,0,0,1,1,1.8,1,,,,,,,,,,,h,3.41054,,,,,,,,,,,,,,,,,,,,,media/dnnb.png,l,1,2.364765,,,,,,h,5.76396,0,0,0,0,1,,,,,,,,,,,,,,,,,,,,,,,,,,,,,,,,
,,,,,,,,,,,,,,,2,1,2020-12-07_09h28.06.760,Context_Learning_Pilot,2020.1.3,MacIntel,60,,,,,,,,,,,,2,2,Symb,u,RT,0,0,1,0,1,1,1.8,1,,,,,,,,,,,,,,,,,,,,,,,,,,,,,,,,,media/dinb.png,u,1,2.010405,,,,,,,,1,0,1,0,1,,,,,,,,,,,,,,,,,,,,,,,,,,,,,,,,
,,,,,,,,,,,,,,,2,1,2020-12-07_09h28.06.760,Context_Learning_Pilot,2020.1.3,MacIntel,60,,,,,,,,,,,,0,1,Symb,u,RT,0,0,2,0,1,1,1.8,1,,,,,,,,,,,,,,,,,,,,,,,,,,,,,,,,,media/djnb.png,u,1,2.08727,,,,,,,,2,0,2,0,1,,,,,,,,,,,,,,,,,,,,,,,,,,,,,,,,
,,,,,,,,,,,,,,,2,1,2020-12-07_09h28.06.760,Context_Learning_Pilot,2020.1.3,MacIntel,60,,,,,,,,,,,,3,2,Symb,i,RT,0,0,3,0,1,1,1.8,1,,,,,,,,,,,,,,,,,,,,,,,,,,,,,,,,,media/ddnb.png,i,1,2.18209,,,,,,,,3,0,3,0,1,,,,,,,,,,,,,,,,,,,,,,,,,,,,,,,,
,,,,,,,,,,,,,,,2,1,2020-12-07_09h28.06.760,Context_Learning_Pilot,2020.1.3,MacIntel,60,,,,,,,,,,,,1,2,Symb,l,RT,0,0,4,0,1,1,1.8,1,,,,,,,,,,,,,,,,,,,,,,,,,,,,,,,,,media/dnnb.png,l,1,1.17906,,,,,,,,4,0,4,0,1,,,,,,,,,,,,,,,,,,,,,,,,,,,,,,,,
,,,,,,,,,,,,,,,2,1,2020-12-07_09h28.06.760,Context_Learning_Pilot,2020.1.3,MacIntel,60,,,,,,,,,,,,1,1,Symb,i,RT,0,0,5,0,1,1,1.8,1,,,,,,,,,,,,,,,,,,,,,,,,,,,,,,,,,media/dnnb.png,i,1,1.001015,,,,,,,,5,0,5,0,1,,,,,,,,,,,,,,,,,,,,,,,,,,,,,,,,
,,,,,,,,,,,,,,,2,1,2020-12-07_09h28.06.760,Context_Learning_Pilot,2020.1.3,MacIntel,60,,,,,,,,,,,,2,1,Symb,h,RT,0,0,6,0,1,1,1.8,1,,,,,,,,,,,,,,,,,,,,,,,,,,,,,,,,,media/dinb.png,h,1,4.43505,,,,,,,,6,0,6,0,1,,,,,,,,,,,,,,,,,,,,,,,,,,,,,,,,
,,,,,,,,,,,,,,,2,1,2020-12-07_09h28.06.760,Context_Learning_Pilot,2020.1.3,MacIntel,60,,,,,,,,,,,,3,1,Symb,l,RT,0,0,7,0,1,1,1.8,1,,,,,,,,,,,,,,,,,,,,,,,,,,,,,,,,,media/ddnb.png,l,1,2.204655,,,,,,,,7,0,7,0,1,,,,,,,,,,,,,,,,,,,,,,,,,,,,,,,,
,,,,,,,,,,,,,,,2,1,2020-12-07_09h28.06.760,Context_Learning_Pilot,2020.1.3,MacIntel,60,,,,,,,,,,,,3,2,Symb,i,RT,0,0,8,0,1,1,1.8,1,,,,,,,,,,,,,,,,,,,,,,,,,,,,,,,,,media/ddnb.png,i,1,1.18682,,,,,,,,8,0,8,0,1,,,,,,,,,,,,,,,,,,,,,,,,,,,,,,,,
,,,,,,,,,,,,,,,2,1,2020-12-07_09h28.06.760,Context_Learning_Pilot,2020.1.3,MacIntel,60,,,,,,,,,,,,0,2,Symb,h,RT,0,0,9,0,1,1,1.8,1,,,,,,,,,,,,,,,,,,,,,,,,,,,,,,,,,media/djnb.png,h,1,1.48233,,,,,,,,9,0,9,0,1,,,,,,,,,,,,,,,,,,,,,,,,,,,,,,,,
,,,,,,,,,,,,,,,2,1,2020-12-07_09h28.06.760,Context_Learning_Pilot,2020.1.3,MacIntel,60,,,,,,,,,,,,3,1,Symb,l,RT,0,0,10,0,1,1,1.8,1,,,,,,,,,,,,,,,,,,,,,,,,,,,,,,,,,media/ddnb.png,l,1,2.116955,,,,,,,,10,0,10,0,1,,,,,,,,,,,,,,,,,,,,,,,,,,,,,,,,
,,,,,,,,,,,,,,,2,1,2020-12-07_09h28.06.760,Context_Learning_Pilot,2020.1.3,MacIntel,60,,,,,,,,,,,,0,1,Symb,u,RT,0,0,11,0,1,1,1.8,1,,,,,,,,,,,,,,,,,,,,,,,,,,,,,,,,,media/djnb.png,u,1,3.97357,,,,,,,,11,0,11,0,1,,,,,,,,,,,,,,,,,,,,,,,,,,,,,,,,
,,,,,,,,,,,,,,,2,1,2020-12-07_09h28.06.760,Context_Learning_Pilot,2020.1.3,MacIntel,60,,,,,,,,,,,,2,2,Symb,u,RT,0,0,12,0,1,1,1.8,1,,,,,,,,,,,,,,,,,,,,,,,,,,,,,,,,,media/dinb.png,u,1,1.540245,,,,,,,,12,0,12,0,1,,,,,,,,,,,,,,,,,,,,,,,,,,,,,,,,
,,,,,,,,,,,,,,,2,1,2020-12-07_09h28.06.760,Context_Learning_Pilot,2020.1.3,MacIntel,60,,,,,,,,,,,,2,1,Symb,h,RT,0,0,13,0,1,1,1.8,1,,,,,,,,,,,,,,,,,,,,,,,,,,,,,,,,,media/dinb.png,h,1,0.95441,,,,,,,,13,0,13,0,1,,,,,,,,,,,,,,,,,,,,,,,,,,,,,,,,
,,,,,,,,,,,,,,,2,1,2020-12-07_09h28.06.760,Context_Learning_Pilot,2020.1.3,MacIntel,60,,,,,,,,,,,,1,1,Symb,i,RT,0,0,14,0,1,1,1.8,1,,,,,,,,,,,,,,,,,,,,,,,,,,,,,,,,,media/dnnb.png,i,1,3.58036,,,,,,,,14,0,14,0,1,,,,,,,,,,,,,,,,,,,,,,,,,,,,,,,,
,,,,,,,,,,,,,,,2,1,2020-12-07_09h28.06.760,Context_Learning_Pilot,2020.1.3,MacIntel,60,,,,,,,,,,,,0,2,Symb,h,RT,0,0,15,0,1,1,1.8,1,,,,,,,,,,,,,,,,,,,,,,,,,,,,,,,,,media/djnb.png,h,1,3.57709,,,,,,,,15,0,15,0,1,,,,,,,,,,,,,,,,,,,,,,,,,,,,,,,,
,,,,,,,,,,,,,,,2,1,2020-12-07_09h28.06.760,Context_Learning_Pilot,2020.1.3,MacIntel,60,,,,,,,,,,,,2,1,Symb,h,RT,0,0,16,0,1,1,1.8,1,,,,,,,,,,,,,,,,,,,,,,,,,,,,,,,,,media/dinb.png,h,1,1.918845,,,,,,,,16,0,16,0,1,,,,,,,,,,,,,,,,,,,,,,,,,,,,,,,,
,,,,,,,,,,,,,,,2,1,2020-12-07_09h28.06.760,Context_Learning_Pilot,2020.1.3,MacIntel,60,,,,,,,,,,,,1,2,Symb,l,RT,0,0,17,0,1,1,1.8,1,,,,,,,,,,,,,,,,,,,,,,,,,,,,,,,,,media/dnnb.png,l,1,3.58864,,,,,,,,17,0,17,0,1,,,,,,,,,,,,,,,,,,,,,,,,,,,,,,,,
,,,,,,,,,,,,,,,2,1,2020-12-07_09h28.06.760,Context_Learning_Pilot,2020.1.3,MacIntel,60,,,,,,,,,,,,1,1,Symb,i,RT,0,0,18,0,1,1,1.8,1,,,,,,,,,,,,,,,,,,,,,,,,,,,,,,,,,media/dnnb.png,i,1,1.17799,,,,,,,,18,0,18,0,1,,,,,,,,,,,,,,,,,,,,,,,,,,,,,,,,
,,,,,,,,,,,,,,,2,1,2020-12-07_09h28.06.760,Context_Learning_Pilot,2020.1.3,MacIntel,60,,,,,,,,,,,,2,2,Symb,u,RT,0,0,19,0,1,1,1.8,1,,,,,,,,,,,,,,,,,,,,,,,,,,,,,,,,,media/dinb.png,u,1,5.199675,,,,,,,,19,0,19,0,1,,,,,,,,,,,,,,,,,,,,,,,,,,,,,,,,
,,,,,,,,,,,,,,,2,1,2020-12-07_09h28.06.760,Context_Learning_Pilot,2020.1.3,MacIntel,60,,,,,,,,,,,,3,1,Symb,l,RT,0,0,20,0,1,1,1.8,1,,,,,,,,,,,,,,,,,,,,,,,,,,,,,,,,,media/ddnb.png,l,1,1.57209,,,,,,,,20,0,20,0,1,,,,,,,,,,,,,,,,,,,,,,,,,,,,,,,,
,,,,,,,,,,,,,,,2,1,2020-12-07_09h28.06.760,Context_Learning_Pilot,2020.1.3,MacIntel,60,,,,,,,,,,,,0,1,Symb,u,RT,0,0,21,0,1,1,1.8,1,,,,,,,,,,,,,,,,,,,,,,,,,,,,,,,,,media/djnb.png,u,1,2.420595,,,,,,,,21,0,21,0,1,,,,,,,,,,,,,,,,,,,,,,,,,,,,,,,,
,,,,,,,,,,,,,,,2,1,2020-12-07_09h28.06.760,Context_Learning_Pilot,2020.1.3,MacIntel,60,,,,,,,,,,,,1,1,Symb,i,RT,0,0,22,0,1,1,1.8,1,,,,,,,,,,,,,,,,,,,,,,,,,,,,,,,,,media/dnnb.png,i,1,5.844565,,,,,,,,22,0,22,0,1,,,,,,,,,,,,,,,,,,,,,,,,,,,,,,,,
,,,,,,,,,,,,,,,2,1,2020-12-07_09h28.06.760,Context_Learning_Pilot,2020.1.3,MacIntel,60,,,,,,,,,,,,1,2,Symb,l,RT,0,0,23,0,1,1,1.8,1,,,,,,,,,,,,,,,,,,,,,,,,,,,,,,,,,media/dnnb.png,l,1,1.061425,,,,,,,,23,0,23,0,1,,,,,,,,,,,,,,,,,,,,,,,,,,,,,,,,
,,,,,,,,,,,,,,,2,1,2020-12-07_09h28.06.760,Context_Learning_Pilot,2020.1.3,MacIntel,60,,,,,,,,,,,,0,2,Symb,h,RT,0,0,24,0,1,1,1.8,1,,,,,,,,,,,,,,,,,,,,,,,,,,,,,,,,,media/djnb.png,h,1,1.480285,,,,,,,,24,0,24,0,1,,,,,,,,,,,,,,,,,,,,,,,,,,,,,,,,
,,,,,,,,,,,,,,,2,1,2020-12-07_09h28.06.760,Context_Learning_Pilot,2020.1.3,MacIntel,60,,,,,,,,,,,,0,1,Symb,u,RT,0,0,25,0,1,1,1.8,1,,,,,,,,,,,,,,,,,,,,,,,,,,,,,,,,,media/djnb.png,u,1,1.17818,,,,,,,,25,0,25,0,1,,,,,,,,,,,,,,,,,,,,,,,,,,,,,,,,
,,,,,,,,,,,,,,,2,1,2020-12-07_09h28.06.760,Context_Learning_Pilot,2020.1.3,MacIntel,60,,,,,,,,,,,,3,2,Symb,i,RT,0,0,26,0,1,1,1.8,1,,,,,,,,,,,,,,,,,,,,,,,,,,,,,,,,,media/ddnb.png,i,1,4.16757,,,,,,,,26,0,26,0,1,,,,,,,,,,,,,,,,,,,,,,,,,,,,,,,,
,,,,,,,,,,,,,,,2,1,2020-12-07_09h28.06.760,Context_Learning_Pilot,2020.1.3,MacIntel,60,,,,,,,,,,,,3,2,Symb,i,RT,0,0,27,0,1,1,1.8,1,,,,,,,,,,,,,,,,,,,,,,,,,,,,,,,,,media/ddnb.png,i,1,0.89717,,,,,,,,27,0,27,0,1,,,,,,,,,,,,,,,,,,,,,,,,,,,,,,,,
,,,,,,,,,,,,,,,2,1,2020-12-07_09h28.06.760,Context_Learning_Pilot,2020.1.3,MacIntel,60,,,,,,,,,,,,2,1,Symb,h,RT,0,0,28,0,1,1,1.8,1,,,,,,,,,,,,,,,,,,,,,,,,,,,,,,,,,media/dinb.png,h,1,1.90147,,,,,,,,28,0,28,0,1,,,,,,,,,,,,,,,,,,,,,,,,,,,,,,,,
,,,,,,,,,,,,,,,2,1,2020-12-07_09h28.06.760,Context_Learning_Pilot,2020.1.3,MacIntel,60,,,,,,,,,,,,3,1,Symb,l,RT,0,0,29,0,1,1,1.8,1,,,,,,,,,,,,,,,,,,,,,,,,,,,,,,,,,media/ddnb.png,l,1,2.25158,,,,,,,,29,0,29,0,1,,,,,,,,,,,,,,,,,,,,,,,,,,,,,,,,
,,,,,,,,,,,,,,,2,1,2020-12-07_09h28.06.760,Context_Learning_Pilot,2020.1.3,MacIntel,60,,,,,,,,,,,,0,2,Symb,h,RT,0,0,30,0,1,1,1.8,1,,,,,,,,,,,,,,,,,,,,,,,,,,,,,,,,,media/djnb.png,h,1,1.610485,,,,,,,,30,0,30,0,1,,,,,,,,,,,,,,,,,,,,,,,,,,,,,,,,
,,,,,,,,,,,,,,,2,1,2020-12-07_09h28.06.760,Context_Learning_Pilot,2020.1.3,MacIntel,60,,,,,,,,,,,,2,2,Symb,u,RT,0,0,31,0,1,1,1.8,1,,,,,,,,,,,,,,,,,,,,,,,,,,,,,,,,,media/dinb.png,u,1,1.00246,,,,,,,,31,0,31,0,1,,,,,,,,,,,,,,,,,,,,,,,,,,,,,,,,
,,,,,,,,,,,,,,,2,1,2020-12-07_09h28.06.760,Context_Learning_Pilot,2020.1.3,MacIntel,60,,,,,,,,,,,,1,2,Symb,l,RT,0,0,32,0,1,1,1.8,1,,,,,,,,,,,,,,,,,,,,,,,,,,,,,,,,,media/dnnb.png,i,0,1.77342,,,,,,,,32,0,32,0,1,,,,,,,,,,,,,,,,,,,,,,,,,,,,,,,,
,,,,,,,,,,,,,,,2,1,2020-12-07_09h28.06.760,Context_Learning_Pilot,2020.1.3,MacIntel,60,,,,,,,,,,,,1,1,Symb,i,RT,0,0,33,0,1,1,1.8,1,,,,,,,,,,,,,,,,,,,,,,,,,,,,,,,,,media/dnnb.png,i,1,2.55638,,,,,,,,33,0,33,0,1,,,,,,,,,,,,,,,,,,,,,,,,,,,,,,,,
,,,,,,,,,,,,,,,2,1,2020-12-07_09h28.06.760,Context_Learning_Pilot,2020.1.3,MacIntel,60,,,,,,,,,,,,0,2,Symb,h,RT,0,0,34,0,1,1,1.8,1,,,,,,,,,,,,,,,,,,,,,,,,,,,,,,,,,media/djnb.png,h,1,2.965935,,,,,,,,34,0,34,0,1,,,,,,,,,,,,,,,,,,,,,,,,,,,,,,,,
,,,,,,,,,,,,,,,2,1,2020-12-07_09h28.06.760,Context_Learning_Pilot,2020.1.3,MacIntel,60,,,,,,,,,,,,3,1,Symb,l,RT,0,0,35,0,1,1,1.8,1,,,,,,,,,,,,,,,,,,,,,,,,,,,,,,,,,media/ddnb.png,l,1,2.159465,,,,,,,,35,0,35,0,1,,,,,,,,,,,,,,,,,,,,,,,,,,,,,,,,
,,,,,,,,,,,,,,,2,1,2020-12-07_09h28.06.760,Context_Learning_Pilot,2020.1.3,MacIntel,60,,,,,,,,,,,,2,2,Symb,u,RT,0,0,36,0,1,1,1.8,1,,,,,,,,,,,,,,,,,,,,,,,,,,,,,,,,,media/dinb.png,u,1,1.54248,,,,,,,,36,0,36,0,1,,,,,,,,,,,,,,,,,,,,,,,,,,,,,,,,
,,,,,,,,,,,,,,,2,1,2020-12-07_09h28.06.760,Context_Learning_Pilot,2020.1.3,MacIntel,60,,,,,,,,,,,,2,2,Symb,u,RT,0,0,37,0,1,1,1.8,1,,,,,,,,,,,,,,,,,,,,,,,,,,,,,,,,,media/dinb.png,u,1,0.61086,,,,,,,,37,0,37,0,1,,,,,,,,,,,,,,,,,,,,,,,,,,,,,,,,
,,,,,,,,,,,,,,,2,1,2020-12-07_09h28.06.760,Context_Learning_Pilot,2020.1.3,MacIntel,60,,,,,,,,,,,,1,1,Symb,i,RT,0,0,38,0,1,1,1.8,1,,,,,,,,,,,,,,,,,,,,,,,,,,,,,,,,,media/dnnb.png,i,1,1.90813,,,,,,,,38,0,38,0,1,,,,,,,,,,,,,,,,,,,,,,,,,,,,,,,,
,,,,,,,,,,,,,,,2,1,2020-12-07_09h28.06.760,Context_Learning_Pilot,2020.1.3,MacIntel,60,,,,,,,,,,,,3,1,Symb,l,RT,0,0,39,0,1,1,1.8,1,,,,,,,,,,,,,,,,,,,,,,,,,,,,,,,,,media/ddnb.png,l,1,1.47695,,,,,,,,39,0,39,0,1,,,,,,,,,,,,,,,,,,,,,,,,,,,,,,,,
,,,,,,,,,,,,,,,2,1,2020-12-07_09h28.06.760,Context_Learning_Pilot,2020.1.3,MacIntel,60,,,,,,,,,,,,3,2,Symb,i,RT,0,0,40,0,1,1,1.8,1,,,,,,,,,,,,,,,,,,,,,,,,,,,,,,,,,media/ddnb.png,i,1,1.403865,,,,,,,,40,0,40,0,1,,,,,,,,,,,,,,,,,,,,,,,,,,,,,,,,
,,,,,,,,,,,,,,,2,1,2020-12-07_09h28.06.760,Context_Learning_Pilot,2020.1.3,MacIntel,60,,,,,,,,,,,,2,1,Symb,h,RT,0,0,41,0,1,1,1.8,1,,,,,,,,,,,,,,,,,,,,,,,,,,,,,,,,,media/dinb.png,h,1,5.244995,,,,,,,,41,0,41,0,1,,,,,,,,,,,,,,,,,,,,,,,,,,,,,,,,
,,,,,,,,,,,,,,,2,1,2020-12-07_09h28.06.760,Context_Learning_Pilot,2020.1.3,MacIntel,60,,,,,,,,,,,,0,2,Symb,h,RT,0,0,42,0,1,1,1.8,1,,,,,,,,,,,,,,,,,,,,,,,,,,,,,,,,,media/djnb.png,h,1,2.1693,,,,,,,,42,0,42,0,1,,,,,,,,,,,,,,,,,,,,,,,,,,,,,,,,
,,,,,,,,,,,,,,,2,1,2020-12-07_09h28.06.760,Context_Learning_Pilot,2020.1.3,MacIntel,60,,,,,,,,,,,,2,1,Symb,h,RT,0,0,43,0,1,1,1.8,1,,,,,,,,,,,,,,,,,,,,,,,,,,,,,,,,,media/dinb.png,h,1,1.190365,,,,,,,,43,0,43,0,1,,,,,,,,,,,,,,,,,,,,,,,,,,,,,,,,
,,,,,,,,,,,,,,,2,1,2020-12-07_09h28.06.760,Context_Learning_Pilot,2020.1.3,MacIntel,60,,,,,,,,,,,,1,2,Symb,l,RT,0,0,44,0,1,1,1.8,1,,,,,,,,,,,,,,,,,,,,,,,,,,,,,,,,,media/dnnb.png,l,1,1.52966,,,,,,,,44,0,44,0,1,,,,,,,,,,,,,,,,,,,,,,,,,,,,,,,,
,,,,,,,,,,,,,,,2,1,2020-12-07_09h28.06.760,Context_Learning_Pilot,2020.1.3,MacIntel,60,,,,,,,,,,,,0,1,Symb,u,RT,0,0,45,0,1,1,1.8,1,,,,,,,,,,,,,,,,,,,,,,,,,,,,,,,,,media/djnb.png,u,1,2.349385,,,,,,,,45,0,45,0,1,,,,,,,,,,,,,,,,,,,,,,,,,,,,,,,,
,,,,,,,,,,,,,,,2,1,2020-12-07_09h28.06.760,Context_Learning_Pilot,2020.1.3,MacIntel,60,,,,,,,,,,,,3,2,Symb,i,RT,0,0,46,0,1,1,1.8,1,,,,,,,,,,,,,,,,,,,,,,,,,,,,,,,,,media/ddnb.png,i,1,7.412595,,,,,,,,46,0,46,0,1,,,,,,,,,,,,,,,,,,,,,,,,,,,,,,,,
,,,,,,,,,,,,,,,2,1,2020-12-07_09h28.06.760,Context_Learning_Pilot,2020.1.3,MacIntel,60,,,,,,,,,,,,0,1,Symb,u,RT,0,0,47,0,1,1,1.8,1,,,,,,,,,,,,,,,,,,,,,,,,,,,,,,,,,media/djnb.png,h,0,2.0135,,,,,,,,47,0,47,0,1,,,,,,,,,,,,,,,,,,,,,,,,,,,,,,,,
,,,,,,,,,,,,,,,2,1,2020-12-07_09h28.06.760,Context_Learning_Pilot,2020.1.3,MacIntel,60,,,,,,,,,,,,0,1,Symb,u,RT,0,0,48,0,1,1,1.8,1,,,,,,,,,,,,,,,,,,,,,,,,,,,,,,,,,media/djnb.png,u,1,0.09913,,,,,,,,48,0,48,0,1,,,,,,,,,,,,,,,,,,,,,,,,,,,,,,,,
,,,,,,,,,,,,,,,2,1,2020-12-07_09h28.06.760,Context_Learning_Pilot,2020.1.3,MacIntel,60,,,,,,,,,,,,3,1,Symb,l,RT,0,0,49,0,1,1,1.8,1,,,,,,,,,,,,,,,,,,,,,,,,,,,,,,,,,media/ddnb.png,l,1,1.6613,,,,,,,,49,0,49,0,1,,,,,,,,,,,,,,,,,,,,,,,,,,,,,,,,
,,,,,,,,,,,,,,,2,1,2020-12-07_09h28.06.760,Context_Learning_Pilot,2020.1.3,MacIntel,60,,,,,,,,,,,,1,1,Symb,i,RT,0,0,50,0,1,1,1.8,1,,,,,,,,,,,,,,,,,,,,,,,,,,,,,,,,,media/dnnb.png,i,1,1.410525,,,,,,,,50,0,50,0,1,,,,,,,,,,,,,,,,,,,,,,,,,,,,,,,,
,,,,,,,,,,,,,,,2,1,2020-12-07_09h28.06.760,Context_Learning_Pilot,2020.1.3,MacIntel,60,,,,,,,,,,,,3,2,Symb,i,RT,0,0,51,0,1,1,1.8,1,,,,,,,,,,,,,,,,,,,,,,,,,,,,,,,,,media/ddnb.png,i,1,3.09075,,,,,,,,51,0,51,0,1,,,,,,,,,,,,,,,,,,,,,,,,,,,,,,,,
,,,,,,,,,,,,,,,2,1,2020-12-07_09h28.06.760,Context_Learning_Pilot,2020.1.3,MacIntel,60,,,,,,,,,,,,1,2,Symb,l,RT,0,0,52,0,1,1,1.8,1,,,,,,,,,,,,,,,,,,,,,,,,,,,,,,,,,media/dnnb.png,l,1,1.412405,,,,,,,,52,0,52,0,1,,,,,,,,,,,,,,,,,,,,,,,,,,,,,,,,
,,,,,,,,,,,,,,,2,1,2020-12-07_09h28.06.760,Context_Learning_Pilot,2020.1.3,MacIntel,60,,,,,,,,,,,,1,1,Symb,i,RT,0,0,53,0,1,1,1.8,1,,,,,,,,,,,,,,,,,,,,,,,,,,,,,,,,,media/dnnb.png,i,1,1.0703,,,,,,,,53,0,53,0,1,,,,,,,,,,,,,,,,,,,,,,,,,,,,,,,,
,,,,,,,,,,,,,,,2,1,2020-12-07_09h28.06.760,Context_Learning_Pilot,2020.1.3,MacIntel,60,,,,,,,,,,,,3,1,Symb,l,RT,0,0,54,0,1,1,1.8,1,,,,,,,,,,,,,,,,,,,,,,,,,,,,,,,,,media/ddnb.png,l,1,1.28292,,,,,,,,54,0,54,0,1,,,,,,,,,,,,,,,,,,,,,,,,,,,,,,,,
,,,,,,,,,,,,,,,2,1,2020-12-07_09h28.06.760,Context_Learning_Pilot,2020.1.3,MacIntel,60,,,,,,,,,,,,1,2,Symb,l,RT,0,0,55,0,1,1,1.8,1,,,,,,,,,,,,,,,,,,,,,,,,,,,,,,,,,media/dnnb.png,i,0,2.653955,,,,,,,,55,0,55,0,1,,,,,,,,,,,,,,,,,,,,,,,,,,,,,,,,
,,,,,,,,,,,,,,,2,1,2020-12-07_09h28.06.760,Context_Learning_Pilot,2020.1.3,MacIntel,60,,,,,,,,,,,,0,1,Symb,u,RT,0,0,56,0,1,1,1.8,1,,,,,,,,,,,,,,,,,,,,,,,,,,,,,,,,,media/djnb.png,l,0,0.394895,,,,,,,,56,0,56,0,1,,,,,,,,,,,,,,,,,,,,,,,,,,,,,,,,
,,,,,,,,,,,,,,,2,1,2020-12-07_09h28.06.760,Context_Learning_Pilot,2020.1.3,MacIntel,60,,,,,,,,,,,,2,2,Symb,u,RT,0,0,57,0,1,1,1.8,1,,,,,,,,,,,,,,,,,,,,,,,,,,,,,,,,,media/dinb.png,u,1,2.005395,,,,,,,,57,0,57,0,1,,,,,,,,,,,,,,,,,,,,,,,,,,,,,,,,
,,,,,,,,,,,,,,,2,1,2020-12-07_09h28.06.760,Context_Learning_Pilot,2020.1.3,MacIntel,60,,,,,,,,,,,,0,2,Symb,h,RT,0,0,58,0,1,1,1.8,1,,,,,,,,,,,,,,,,,,,,,,,,,,,,,,,,,media/djnb.png,h,1,2.17071,,,,,,,,58,0,58,0,1,,,,,,,,,,,,,,,,,,,,,,,,,,,,,,,,
