Import_Stim.thisRepN,Import_Stim.thisTrialN,Import_Stim.thisN,Import_Stim.thisIndex,Import_Stim.ran,Stim,CorrResp,Ctx_color,imStim,imStim_r,imStim_g,x_pos,y_pos,Hand,Feedback,participant,session,date,expName,psychopyVersion,OS,frameRate,stim_key_map_ctx1,stim_key_map_ctx2,Instr_RT_Press.keys,Instr_RT_Press.rt,Instr_Block_Num_Press.keys,Instr_Block_Num_Press.rt,Symbol,Shape,ctx,Stim_Type,Finger,Block_Type,Remap,Repeat_Count,Trial_Count,Grp_B,Brp_R,Block_Num,Set_Prep_Time,Session,RT_Press.keys,RT_Press.corr,RT_Press.rt,RT_Iter.thisRepN,RT_Iter.thisTrialN,RT_Iter.thisN,RT_Iter.thisIndex,RT_Iter.ran,RT_Block.thisRepN,RT_Block.thisTrialN,RT_Block.thisN,RT_Block.thisIndex,RT_Block.ran
0,0,0,0,1,0,h,red,media/djnb.png,media/djnb_r.png,media/djnb_g.png,-0.038,0.075,media/hand.png,media/check.png,2,3,2020-12-09_14h23.30.605,Context_Learning_Pilot,2020.1.3,MacIntel,60,,,,,,,,,,,,,,,,,,,,,,,,,,,,,,,,,
0,1,1,1,1,1,u,red,media/dnnb.png,media/dnnb_r.png,media/dnnb_g.png,0.014,0.1,media/hand.png,media/cross.png,2,3,2020-12-09_14h23.30.605,Context_Learning_Pilot,2020.1.3,MacIntel,60,,,,,,,,,,,,,,,,,,,,,,,,,,,,,,,,,
0,2,2,2,1,2,i,red,media/dinb.png,media/dinb_r.png,media/dinb_g.png,0.057,0.08,media/hand.png,media/check.png,2,3,2020-12-09_14h23.30.605,Context_Learning_Pilot,2020.1.3,MacIntel,60,,,,,,,,,,,,,,,,,,,,,,,,,,,,,,,,,
0,3,3,3,1,3,l,red,media/ddnb.png,media/ddnb_r.png,media/ddnb_g.png,0.1,0.04,media/hand.png,media/cross.png,2,3,2020-12-09_14h23.30.605,Context_Learning_Pilot,2020.1.3,MacIntel,60,,,,,,,,,,,,,,,,,,,,,,,,,,,,,,,,,
0,4,4,4,1,0,h,green,media/djnb.png,media/djnb_r.png,media/djnb_g.png,-0.038,0.075,media/hand.png,media/check.png,2,3,2020-12-09_14h23.30.605,Context_Learning_Pilot,2020.1.3,MacIntel,60,,,,,,,,,,,,,,,,,,,,,,,,,,,,,,,,,
0,5,5,5,1,1,u,green,media/dnnb.png,media/dnnb_r.png,media/dnnb_g.png,0.014,0.1,media/hand.png,media/cross.png,2,3,2020-12-09_14h23.30.605,Context_Learning_Pilot,2020.1.3,MacIntel,60,,,,,,,,,,,,,,,,,,,,,,,,,,,,,,,,,
0,6,6,6,1,2,i,green,media/dinb.png,media/dinb_r.png,media/dinb_g.png,0.057,0.08,media/hand.png,media/check.png,2,3,2020-12-09_14h23.30.605,Context_Learning_Pilot,2020.1.3,MacIntel,60,,,,,,,,,,,,,,,,,,,,,,,,,,,,,,,,,
,,,,,,,,,,,,,,,2,3,2020-12-09_14h23.30.605,Context_Learning_Pilot,2020.1.3,MacIntel,60,"[1,2,0,3]","[0,3,1,2]",h,2.996595,h,1.332455,1,media/dnnb.png,2,Symb,l,RT,0,0,0,0,1,1,1.8,3,l,1,0.72028,0,0,0,0,1,,,,,
,,,,,,,,,,,,,,,2,3,2020-12-09_14h23.30.605,Context_Learning_Pilot,2020.1.3,MacIntel,60,,,,,,,1,media/dnnb.png,1,Symb,i,RT,0,0,1,0,1,1,1.8,3,i,1,0.67855,1,0,1,0,1,,,,,
,,,,,,,,,,,,,,,2,3,2020-12-09_14h23.30.605,Context_Learning_Pilot,2020.1.3,MacIntel,60,,,,,,,2,media/dinb.png,1,Symb,h,RT,0,0,2,0,1,1,1.8,3,h,1,0.597985,2,0,2,0,1,,,,,
,,,,,,,,,,,,,,,2,3,2020-12-09_14h23.30.605,Context_Learning_Pilot,2020.1.3,MacIntel,60,,,,,,,2,media/dinb.png,1,Symb,h,RT,0,0,3,0,1,1,1.8,3,h,1,0.494135,3,0,3,0,1,,,,,
,,,,,,,,,,,,,,,2,3,2020-12-09_14h23.30.605,Context_Learning_Pilot,2020.1.3,MacIntel,60,,,,,,,2,media/dinb.png,2,Symb,u,RT,0,0,4,0,1,1,1.8,3,u,1,0.646555,4,0,4,0,1,,,,,
,,,,,,,,,,,,,,,2,3,2020-12-09_14h23.30.605,Context_Learning_Pilot,2020.1.3,MacIntel,60,,,,,,,0,media/djnb.png,2,Symb,h,RT,0,0,5,0,1,1,1.8,3,h,1,0.635395,5,0,5,0,1,,,,,
,,,,,,,,,,,,,,,2,3,2020-12-09_14h23.30.605,Context_Learning_Pilot,2020.1.3,MacIntel,60,,,,,,,0,media/djnb.png,1,Symb,u,RT,0,0,6,0,1,1,1.8,3,u,1,0.61469,6,0,6,0,1,,,,,
,,,,,,,,,,,,,,,2,3,2020-12-09_14h23.30.605,Context_Learning_Pilot,2020.1.3,MacIntel,60,,,,,,,2,media/dinb.png,2,Symb,u,RT,0,0,7,0,1,1,1.8,3,u,1,1.06231,7,0,7,0,1,,,,,
,,,,,,,,,,,,,,,2,3,2020-12-09_14h23.30.605,Context_Learning_Pilot,2020.1.3,MacIntel,60,,,,,,,3,media/ddnb.png,1,Symb,l,RT,0,0,8,0,1,1,1.8,3,l,1,0.77033,8,0,8,0,1,,,,,
,,,,,,,,,,,,,,,2,3,2020-12-09_14h23.30.605,Context_Learning_Pilot,2020.1.3,MacIntel,60,,,,,,,3,media/ddnb.png,2,Symb,i,RT,0,0,9,0,1,1,1.8,3,i,1,0.775605,9,0,9,0,1,,,,,
,,,,,,,,,,,,,,,2,3,2020-12-09_14h23.30.605,Context_Learning_Pilot,2020.1.3,MacIntel,60,,,,,,,3,media/ddnb.png,2,Symb,i,RT,0,0,10,0,1,1,1.8,3,i,1,0.80727,10,0,10,0,1,,,,,
,,,,,,,,,,,,,,,2,3,2020-12-09_14h23.30.605,Context_Learning_Pilot,2020.1.3,MacIntel,60,,,,,,,1,media/dnnb.png,1,Symb,i,RT,0,0,11,0,1,1,1.8,3,l,0,0.748335,11,0,11,0,1,,,,,
,,,,,,,,,,,,,,,2,3,2020-12-09_14h23.30.605,Context_Learning_Pilot,2020.1.3,MacIntel,60,,,,,,,0,media/djnb.png,2,Symb,h,RT,0,0,12,0,1,1,1.8,3,h,1,0.60662,12,0,12,0,1,,,,,
,,,,,,,,,,,,,,,2,3,2020-12-09_14h23.30.605,Context_Learning_Pilot,2020.1.3,MacIntel,60,,,,,,,3,media/ddnb.png,1,Symb,l,RT,0,0,13,0,1,1,1.8,3,l,1,0.67388,13,0,13,0,1,,,,,
,,,,,,,,,,,,,,,2,3,2020-12-09_14h23.30.605,Context_Learning_Pilot,2020.1.3,MacIntel,60,,,,,,,0,media/djnb.png,1,Symb,u,RT,0,0,14,0,1,1,1.8,3,u,1,0.7508,14,0,14,0,1,,,,,
,,,,,,,,,,,,,,,2,3,2020-12-09_14h23.30.605,Context_Learning_Pilot,2020.1.3,MacIntel,60,,,,,,,1,media/dnnb.png,2,Symb,l,RT,0,0,15,0,1,1,1.8,3,l,1,0.666325,15,0,15,0,1,,,,,
,,,,,,,,,,,,,,,2,3,2020-12-09_14h23.30.605,Context_Learning_Pilot,2020.1.3,MacIntel,60,,,,,,,2,media/dinb.png,1,Symb,h,RT,0,0,16,0,1,1,1.8,3,h,1,0.64747,16,0,16,0,1,,,,,
,,,,,,,,,,,,,,,2,3,2020-12-09_14h23.30.605,Context_Learning_Pilot,2020.1.3,MacIntel,60,,,,,,,2,media/dinb.png,1,Symb,h,RT,0,0,17,0,1,1,1.8,3,h,1,1.25199,17,0,17,0,1,,,,,
,,,,,,,,,,,,,,,2,3,2020-12-09_14h23.30.605,Context_Learning_Pilot,2020.1.3,MacIntel,60,,,,,,,0,media/djnb.png,2,Symb,h,RT,0,0,18,0,1,1,1.8,3,h,1,0.593825,18,0,18,0,1,,,,,
,,,,,,,,,,,,,,,2,3,2020-12-09_14h23.30.605,Context_Learning_Pilot,2020.1.3,MacIntel,60,,,,,,,2,media/dinb.png,2,Symb,u,RT,0,0,19,0,1,1,1.8,3,u,1,0.74844,19,0,19,0,1,,,,,
,,,,,,,,,,,,,,,2,3,2020-12-09_14h23.30.605,Context_Learning_Pilot,2020.1.3,MacIntel,60,,,,,,,3,media/ddnb.png,1,Symb,l,RT,0,0,20,0,1,1,1.8,3,l,1,0.816675,20,0,20,0,1,,,,,
,,,,,,,,,,,,,,,2,3,2020-12-09_14h23.30.605,Context_Learning_Pilot,2020.1.3,MacIntel,60,,,,,,,0,media/djnb.png,2,Symb,h,RT,0,0,21,0,1,1,1.8,3,h,1,0.633155,21,0,21,0,1,,,,,
,,,,,,,,,,,,,,,2,3,2020-12-09_14h23.30.605,Context_Learning_Pilot,2020.1.3,MacIntel,60,,,,,,,0,media/djnb.png,1,Symb,u,RT,0,0,22,0,1,1,1.8,3,h,0,1.01988,22,0,22,0,1,,,,,
,,,,,,,,,,,,,,,2,3,2020-12-09_14h23.30.605,Context_Learning_Pilot,2020.1.3,MacIntel,60,,,,,,,1,media/dnnb.png,2,Symb,l,RT,0,0,23,0,1,1,1.8,3,l,1,0.698805,23,0,23,0,1,,,,,
,,,,,,,,,,,,,,,2,3,2020-12-09_14h23.30.605,Context_Learning_Pilot,2020.1.3,MacIntel,60,,,,,,,1,media/dnnb.png,2,Symb,l,RT,0,0,24,0,1,1,1.8,3,l,1,0.529055,24,0,24,0,1,,,,,
,,,,,,,,,,,,,,,2,3,2020-12-09_14h23.30.605,Context_Learning_Pilot,2020.1.3,MacIntel,60,,,,,,,1,media/dnnb.png,1,Symb,i,RT,0,0,25,0,1,1,1.8,3,i,1,0.632205,25,0,25,0,1,,,,,
,,,,,,,,,,,,,,,2,3,2020-12-09_14h23.30.605,Context_Learning_Pilot,2020.1.3,MacIntel,60,,,,,,,2,media/dinb.png,2,Symb,u,RT,0,0,26,0,1,1,1.8,3,h,0,0.89777,26,0,26,0,1,,,,,
,,,,,,,,,,,,,,,2,3,2020-12-09_14h23.30.605,Context_Learning_Pilot,2020.1.3,MacIntel,60,,,,,,,3,media/ddnb.png,2,Symb,i,RT,0,0,27,0,1,1,1.8,3,i,1,0.9835,27,0,27,0,1,,,,,
,,,,,,,,,,,,,,,2,3,2020-12-09_14h23.30.605,Context_Learning_Pilot,2020.1.3,MacIntel,60,,,,,,,3,media/ddnb.png,1,Symb,l,RT,0,0,28,0,1,1,1.8,3,l,1,1.86695,28,0,28,0,1,,,,,
,,,,,,,,,,,,,,,2,3,2020-12-09_14h23.30.605,Context_Learning_Pilot,2020.1.3,MacIntel,60,,,,,,,0,media/djnb.png,1,Symb,u,RT,0,0,29,0,1,1,1.8,3,u,1,0.742725,29,0,29,0,1,,,,,
,,,,,,,,,,,,,,,2,3,2020-12-09_14h23.30.605,Context_Learning_Pilot,2020.1.3,MacIntel,60,,,,,,,3,media/ddnb.png,2,Symb,i,RT,0,0,30,0,1,1,1.8,3,i,1,0.98313,30,0,30,0,1,,,,,
,,,,,,,,,,,,,,,2,3,2020-12-09_14h23.30.605,Context_Learning_Pilot,2020.1.3,MacIntel,60,,,,,,,1,media/dnnb.png,1,Symb,i,RT,0,0,31,0,1,1,1.8,3,i,1,1.041225,31,0,31,0,1,,,,,
,,,,,,,,,,,,,,,2,3,2020-12-09_14h23.30.605,Context_Learning_Pilot,2020.1.3,MacIntel,60,,,,,,,0,media/djnb.png,1,Symb,u,RT,0,0,32,0,1,1,1.8,3,u,1,0.73655,32,0,32,0,1,,,,,
,,,,,,,,,,,,,,,2,3,2020-12-09_14h23.30.605,Context_Learning_Pilot,2020.1.3,MacIntel,60,,,,,,,3,media/ddnb.png,1,Symb,l,RT,0,0,33,0,1,1,1.8,3,l,1,0.80599,33,0,33,0,1,,,,,
,,,,,,,,,,,,,,,2,3,2020-12-09_14h23.30.605,Context_Learning_Pilot,2020.1.3,MacIntel,60,,,,,,,2,media/dinb.png,2,Symb,u,RT,0,0,34,0,1,1,1.8,3,u,1,0.7657,34,0,34,0,1,,,,,
,,,,,,,,,,,,,,,2,3,2020-12-09_14h23.30.605,Context_Learning_Pilot,2020.1.3,MacIntel,60,,,,,,,1,media/dnnb.png,1,Symb,i,RT,0,0,35,0,1,1,1.8,3,i,1,0.982105,35,0,35,0,1,,,,,
,,,,,,,,,,,,,,,2,3,2020-12-09_14h23.30.605,Context_Learning_Pilot,2020.1.3,MacIntel,60,,,,,,,1,media/dnnb.png,2,Symb,l,RT,0,0,36,0,1,1,1.8,3,l,1,0.59305,36,0,36,0,1,,,,,
,,,,,,,,,,,,,,,2,3,2020-12-09_14h23.30.605,Context_Learning_Pilot,2020.1.3,MacIntel,60,,,,,,,3,media/ddnb.png,2,Symb,i,RT,0,0,37,0,1,1,1.8,3,i,1,0.812225,37,0,37,0,1,,,,,
,,,,,,,,,,,,,,,2,3,2020-12-09_14h23.30.605,Context_Learning_Pilot,2020.1.3,MacIntel,60,,,,,,,2,media/dinb.png,2,Symb,u,RT,0,0,38,0,1,1,1.8,3,u,1,0.79328,38,0,38,0,1,,,,,
,,,,,,,,,,,,,,,2,3,2020-12-09_14h23.30.605,Context_Learning_Pilot,2020.1.3,MacIntel,60,,,,,,,3,media/ddnb.png,2,Symb,i,RT,0,0,39,0,1,1,1.8,3,i,1,0.734735,39,0,39,0,1,,,,,
,,,,,,,,,,,,,,,2,3,2020-12-09_14h23.30.605,Context_Learning_Pilot,2020.1.3,MacIntel,60,,,,,,,2,media/dinb.png,1,Symb,h,RT,0,0,40,0,1,1,1.8,3,h,1,0.723155,40,0,40,0,1,,,,,
,,,,,,,,,,,,,,,2,3,2020-12-09_14h23.30.605,Context_Learning_Pilot,2020.1.3,MacIntel,60,,,,,,,0,media/djnb.png,1,Symb,u,RT,0,0,41,0,1,1,1.8,3,u,1,0.739615,41,0,41,0,1,,,,,
,,,,,,,,,,,,,,,2,3,2020-12-09_14h23.30.605,Context_Learning_Pilot,2020.1.3,MacIntel,60,,,,,,,1,media/dnnb.png,2,Symb,l,RT,0,0,42,0,1,1,1.8,3,l,1,0.833875,42,0,42,0,1,,,,,
,,,,,,,,,,,,,,,2,3,2020-12-09_14h23.30.605,Context_Learning_Pilot,2020.1.3,MacIntel,60,,,,,,,0,media/djnb.png,2,Symb,h,RT,0,0,43,0,1,1,1.8,3,h,1,0.796565,43,0,43,0,1,,,,,
,,,,,,,,,,,,,,,2,3,2020-12-09_14h23.30.605,Context_Learning_Pilot,2020.1.3,MacIntel,60,,,,,,,1,media/dnnb.png,1,Symb,i,RT,0,0,44,0,1,1,1.8,3,i,1,0.694575,44,0,44,0,1,,,,,
,,,,,,,,,,,,,,,2,3,2020-12-09_14h23.30.605,Context_Learning_Pilot,2020.1.3,MacIntel,60,,,,,,,0,media/djnb.png,2,Symb,h,RT,0,0,45,0,1,1,1.8,3,u,0,0.788345,45,0,45,0,1,,,,,
,,,,,,,,,,,,,,,2,3,2020-12-09_14h23.30.605,Context_Learning_Pilot,2020.1.3,MacIntel,60,,,,,,,2,media/dinb.png,1,Symb,h,RT,0,0,46,0,1,1,1.8,3,h,1,0.85642,46,0,46,0,1,,,,,
,,,,,,,,,,,,,,,2,3,2020-12-09_14h23.30.605,Context_Learning_Pilot,2020.1.3,MacIntel,60,,,,,,,3,media/ddnb.png,1,Symb,l,RT,0,0,47,0,1,1,1.8,3,l,1,0.869535,47,0,47,0,1,,,,,
,,,,,,,,,,,,,,,2,3,2020-12-09_14h23.30.605,Context_Learning_Pilot,2020.1.3,MacIntel,60,,,,,,,3,media/ddnb.png,1,Symb,l,RT,0,0,48,0,1,1,1.8,3,l,1,0.589545,48,0,48,0,1,,,,,
,,,,,,,,,,,,,,,2,3,2020-12-09_14h23.30.605,Context_Learning_Pilot,2020.1.3,MacIntel,60,,,,,,,0,media/djnb.png,2,Symb,h,RT,0,0,49,0,1,1,1.8,3,h,1,0.885955,49,0,49,0,1,,,,,
,,,,,,,,,,,,,,,2,3,2020-12-09_14h23.30.605,Context_Learning_Pilot,2020.1.3,MacIntel,60,,,,,,,3,media/ddnb.png,2,Symb,i,RT,0,0,50,0,1,1,1.8,3,i,1,0.85757,50,0,50,0,1,,,,,
,,,,,,,,,,,,,,,2,3,2020-12-09_14h23.30.605,Context_Learning_Pilot,2020.1.3,MacIntel,60,,,,,,,3,media/ddnb.png,1,Symb,l,RT,0,0,51,0,1,1,1.8,3,l,1,0.86475,51,0,51,0,1,,,,,
,,,,,,,,,,,,,,,2,3,2020-12-09_14h23.30.605,Context_Learning_Pilot,2020.1.3,MacIntel,60,,,,,,,1,media/dnnb.png,1,Symb,i,RT,0,0,52,0,1,1,1.8,3,i,1,0.799645,52,0,52,0,1,,,,,
,,,,,,,,,,,,,,,2,3,2020-12-09_14h23.30.605,Context_Learning_Pilot,2020.1.3,MacIntel,60,,,,,,,3,media/ddnb.png,2,Symb,i,RT,0,0,53,0,1,1,1.8,3,i,1,1.226825,53,0,53,0,1,,,,,
,,,,,,,,,,,,,,,2,3,2020-12-09_14h23.30.605,Context_Learning_Pilot,2020.1.3,MacIntel,60,,,,,,,2,media/dinb.png,2,Symb,u,RT,0,0,54,0,1,1,1.8,3,u,1,0.75664,54,0,54,0,1,,,,,
,,,,,,,,,,,,,,,2,3,2020-12-09_14h23.30.605,Context_Learning_Pilot,2020.1.3,MacIntel,60,,,,,,,1,media/dnnb.png,2,Symb,l,RT,0,0,55,0,1,1,1.8,3,l,1,0.76905,55,0,55,0,1,,,,,
,,,,,,,,,,,,,,,2,3,2020-12-09_14h23.30.605,Context_Learning_Pilot,2020.1.3,MacIntel,60,,,,,,,1,media/dnnb.png,2,Symb,l,RT,0,0,56,0,1,1,1.8,3,l,1,0.51313,56,0,56,0,1,,,,,
,,,,,,,,,,,,,,,2,3,2020-12-09_14h23.30.605,Context_Learning_Pilot,2020.1.3,MacIntel,60,,,,,,,0,media/djnb.png,2,Symb,h,RT,0,0,57,0,1,1,1.8,3,h,1,0.616,57,0,57,0,1,,,,,
,,,,,,,,,,,,,,,2,3,2020-12-09_14h23.30.605,Context_Learning_Pilot,2020.1.3,MacIntel,60,,,,,,,0,media/djnb.png,1,Symb,u,RT,0,0,58,0,1,1,1.8,3,u,1,0.60901,58,0,58,0,1,,,,,
,,,,,,,,,,,,,,,2,3,2020-12-09_14h23.30.605,Context_Learning_Pilot,2020.1.3,MacIntel,60,,,,,,,2,media/dinb.png,1,Symb,h,RT,0,0,59,0,1,1,1.8,3,h,1,0.67664,59,0,59,0,1,,,,,
,,,,,,,,,,,,,,,2,3,2020-12-09_14h23.30.605,Context_Learning_Pilot,2020.1.3,MacIntel,60,,,,,,,2,media/dinb.png,2,Symb,u,RT,0,0,60,0,1,1,1.8,3,u,1,0.838575,60,0,60,0,1,,,,,
,,,,,,,,,,,,,,,2,3,2020-12-09_14h23.30.605,Context_Learning_Pilot,2020.1.3,MacIntel,60,,,,,,,0,media/djnb.png,1,Symb,u,RT,0,0,61,0,1,1,1.8,3,u,1,1.07694,61,0,61,0,1,,,,,
,,,,,,,,,,,,,,,2,3,2020-12-09_14h23.30.605,Context_Learning_Pilot,2020.1.3,MacIntel,60,,,,,,,2,media/dinb.png,1,Symb,h,RT,0,0,62,0,1,1,1.8,3,h,1,0.717685,62,0,62,0,1,,,,,
,,,,,,,,,,,,,,,2,3,2020-12-09_14h23.30.605,Context_Learning_Pilot,2020.1.3,MacIntel,60,,,,,,,1,media/dnnb.png,1,Symb,i,RT,0,0,63,0,1,1,1.8,3,i,1,0.79381,63,0,63,0,1,,,,,
,,,,,,,,,,,,,,,2,3,2020-12-09_14h23.30.605,Context_Learning_Pilot,2020.1.3,MacIntel,60,,,,,,,3,media/ddnb.png,1,Symb,l,RT,0,0,64,0,1,1,1.8,3,l,1,0.704345,64,0,64,0,1,,,,,
,,,,,,,,,,,,,,,2,3,2020-12-09_14h23.30.605,Context_Learning_Pilot,2020.1.3,MacIntel,60,,,,,,,2,media/dinb.png,1,Symb,h,RT,0,0,65,0,1,1,1.8,3,h,1,0.632485,65,0,65,0,1,,,,,
,,,,,,,,,,,,,,,2,3,2020-12-09_14h23.30.605,Context_Learning_Pilot,2020.1.3,MacIntel,60,,,,,,,3,media/ddnb.png,2,Symb,i,RT,0,0,66,0,1,1,1.8,3,u,0,0.639375,66,0,66,0,1,,,,,
,,,,,,,,,,,,,,,2,3,2020-12-09_14h23.30.605,Context_Learning_Pilot,2020.1.3,MacIntel,60,,,,,,,1,media/dnnb.png,2,Symb,l,RT,0,0,67,0,1,1,1.8,3,l,1,0.68717,67,0,67,0,1,,,,,
,,,,,,,,,,,,,,,2,3,2020-12-09_14h23.30.605,Context_Learning_Pilot,2020.1.3,MacIntel,60,,,,,,,2,media/dinb.png,2,Symb,u,RT,0,0,68,0,1,1,1.8,3,u,1,1.18222,68,0,68,0,1,,,,,
,,,,,,,,,,,,,,,2,3,2020-12-09_14h23.30.605,Context_Learning_Pilot,2020.1.3,MacIntel,60,,,,,,,2,media/dinb.png,1,Symb,h,RT,0,0,69,0,1,1,1.8,3,h,1,0.598795,69,0,69,0,1,,,,,
,,,,,,,,,,,,,,,2,3,2020-12-09_14h23.30.605,Context_Learning_Pilot,2020.1.3,MacIntel,60,,,,,,,0,media/djnb.png,1,Symb,u,RT,0,0,70,0,1,1,1.8,3,u,1,0.716715,70,0,70,0,1,,,,,
,,,,,,,,,,,,,,,2,3,2020-12-09_14h23.30.605,Context_Learning_Pilot,2020.1.3,MacIntel,60,,,,,,,0,media/djnb.png,2,Symb,h,RT,0,0,71,0,1,1,1.8,3,h,1,0.714235,71,0,71,0,1,,,,,
,,,,,,,,,,,,,,,2,3,2020-12-09_14h23.30.605,Context_Learning_Pilot,2020.1.3,MacIntel,60,,,,,,,1,media/dnnb.png,1,Symb,i,RT,0,0,72,0,1,1,1.8,3,i,1,1.52021,72,0,72,0,1,,,,,
,,,,,,,,,,,,,,,2,3,2020-12-09_14h23.30.605,Context_Learning_Pilot,2020.1.3,MacIntel,60,,,,,,,1,media/dnnb.png,1,Symb,i,RT,0,0,73,0,1,1,1.8,3,l,0,0.718615,73,0,73,0,1,,,,,
,,,,,,,,,,,,,,,2,3,2020-12-09_14h23.30.605,Context_Learning_Pilot,2020.1.3,MacIntel,60,,,,,,,1,media/dnnb.png,2,Symb,l,RT,0,0,74,0,1,1,1.8,3,l,1,0.64019,74,0,74,0,1,,,,,
,,,,,,,,,,,,,,,2,3,2020-12-09_14h23.30.605,Context_Learning_Pilot,2020.1.3,MacIntel,60,,,,,,,3,media/ddnb.png,2,Symb,i,RT,0,0,75,0,1,1,1.8,3,i,1,0.817575,75,0,75,0,1,,,,,
,,,,,,,,,,,,,,,2,3,2020-12-09_14h23.30.605,Context_Learning_Pilot,2020.1.3,MacIntel,60,,,,,,,0,media/djnb.png,2,Symb,h,RT,0,0,76,0,1,1,1.8,3,h,1,0.73837,76,0,76,0,1,,,,,
,,,,,,,,,,,,,,,2,3,2020-12-09_14h23.30.605,Context_Learning_Pilot,2020.1.3,MacIntel,60,,,,,,,0,media/djnb.png,1,Symb,u,RT,0,0,77,0,1,1,1.8,3,u,1,0.71059,77,0,77,0,1,,,,,
,,,,,,,,,,,,,,,2,3,2020-12-09_14h23.30.605,Context_Learning_Pilot,2020.1.3,MacIntel,60,,,,,,,3,media/ddnb.png,1,Symb,l,RT,0,0,78,0,1,1,1.8,3,l,1,1.580275,78,0,78,0,1,,,,,
,,,,,,,,,,,,,,,2,3,2020-12-09_14h23.30.605,Context_Learning_Pilot,2020.1.3,MacIntel,60,,,,,,,2,media/dinb.png,2,Symb,u,RT,0,0,79,0,1,1,1.8,3,u,1,0.904335,79,0,79,0,1,,,,,
,,,,,,,,,,,,,,,2,3,2020-12-09_14h23.30.605,Context_Learning_Pilot,2020.1.3,MacIntel,60,,,,,,,1,media/dnnb.png,2,Symb,l,RT,0,0,80,0,1,1,1.8,3,l,1,1.024885,80,0,80,0,1,,,,,
,,,,,,,,,,,,,,,2,3,2020-12-09_14h23.30.605,Context_Learning_Pilot,2020.1.3,MacIntel,60,,,,,,,2,media/dinb.png,2,Symb,u,RT,0,0,81,0,1,1,1.8,3,h,0,0.633615,81,0,81,0,1,,,,,
,,,,,,,,,,,,,,,2,3,2020-12-09_14h23.30.605,Context_Learning_Pilot,2020.1.3,MacIntel,60,,,,,,,1,media/dnnb.png,1,Symb,i,RT,0,0,82,0,1,1,1.8,3,l,0,0.68658,82,0,82,0,1,,,,,
,,,,,,,,,,,,,,,2,3,2020-12-09_14h23.30.605,Context_Learning_Pilot,2020.1.3,MacIntel,60,,,,,,,2,media/dinb.png,1,Symb,h,RT,0,0,83,0,1,1,1.8,3,h,1,1.51316,83,0,83,0,1,,,,,
,,,,,,,,,,,,,,,2,3,2020-12-09_14h23.30.605,Context_Learning_Pilot,2020.1.3,MacIntel,60,,,,,,,1,media/dnnb.png,1,Symb,i,RT,0,0,84,0,1,1,1.8,3,i,1,1.34092,84,0,84,0,1,,,,,
,,,,,,,,,,,,,,,2,3,2020-12-09_14h23.30.605,Context_Learning_Pilot,2020.1.3,MacIntel,60,,,,,,,3,media/ddnb.png,2,Symb,i,RT,0,0,85,0,1,1,1.8,3,i,1,0.810045,85,0,85,0,1,,,,,
,,,,,,,,,,,,,,,2,3,2020-12-09_14h23.30.605,Context_Learning_Pilot,2020.1.3,MacIntel,60,,,,,,,0,media/djnb.png,2,Symb,h,RT,0,0,86,0,1,1,1.8,3,h,1,1.37029,86,0,86,0,1,,,,,
,,,,,,,,,,,,,,,2,3,2020-12-09_14h23.30.605,Context_Learning_Pilot,2020.1.3,MacIntel,60,,,,,,,3,media/ddnb.png,1,Symb,l,RT,0,0,87,0,1,1,1.8,3,l,1,1.76612,87,0,87,0,1,,,,,
,,,,,,,,,,,,,,,2,3,2020-12-09_14h23.30.605,Context_Learning_Pilot,2020.1.3,MacIntel,60,,,,,,,2,media/dinb.png,1,Symb,h,RT,0,0,88,0,1,1,1.8,3,h,1,0.717375,88,0,88,0,1,,,,,
,,,,,,,,,,,,,,,2,3,2020-12-09_14h23.30.605,Context_Learning_Pilot,2020.1.3,MacIntel,60,,,,,,,0,media/djnb.png,1,Symb,u,RT,0,0,89,0,1,1,1.8,3,u,1,0.76024,89,0,89,0,1,,,,,
,,,,,,,,,,,,,,,2,3,2020-12-09_14h23.30.605,Context_Learning_Pilot,2020.1.3,MacIntel,60,,,,,,,3,media/ddnb.png,2,Symb,i,RT,0,0,90,0,1,1,1.8,3,i,1,0.891045,90,0,90,0,1,,,,,
,,,,,,,,,,,,,,,2,3,2020-12-09_14h23.30.605,Context_Learning_Pilot,2020.1.3,MacIntel,60,,,,,,,1,media/dnnb.png,2,Symb,l,RT,0,0,91,0,1,1,1.8,3,l,1,0.845825,91,0,91,0,1,,,,,
,,,,,,,,,,,,,,,2,3,2020-12-09_14h23.30.605,Context_Learning_Pilot,2020.1.3,MacIntel,60,,,,,,,3,media/ddnb.png,1,Symb,l,RT,0,0,92,0,1,1,1.8,3,l,1,0.816755,92,0,92,0,1,,,,,
,,,,,,,,,,,,,,,2,3,2020-12-09_14h23.30.605,Context_Learning_Pilot,2020.1.3,MacIntel,60,,,,,,,2,media/dinb.png,2,Symb,u,RT,0,0,93,0,1,1,1.8,3,u,1,0.93998,93,0,93,0,1,,,,,
,,,,,,,,,,,,,,,2,3,2020-12-09_14h23.30.605,Context_Learning_Pilot,2020.1.3,MacIntel,60,,,,,,,0,media/djnb.png,1,Symb,u,RT,0,0,94,0,1,1,1.8,3,u,1,0.998665,94,0,94,0,1,,,,,
,,,,,,,,,,,,,,,2,3,2020-12-09_14h23.30.605,Context_Learning_Pilot,2020.1.3,MacIntel,60,,,,,,,0,media/djnb.png,2,Symb,h,RT,0,0,95,0,1,1,1.8,3,h,1,0.591915,95,0,95,0,1,,,,,
,,,,,,,,,,,,,,,2,3,2020-12-09_14h23.30.605,Context_Learning_Pilot,2020.1.3,MacIntel,60,,,,,,,,,,,,,,,,,,,,,,,,,,,,,0,0,0,0,1
,,,,,,,,,,,,,,,2,3,2020-12-09_14h23.30.605,Context_Learning_Pilot,2020.1.3,MacIntel,60,,,,,h,11.62972,0,media/djnb.png,2,Symb,h,RT,0,0,0,0,1,2,1.8,3,h,1,1.073975,0,0,0,0,1,,,,,
,,,,,,,,,,,,,,,2,3,2020-12-09_14h23.30.605,Context_Learning_Pilot,2020.1.3,MacIntel,60,,,,,,,1,media/dnnb.png,2,Symb,l,RT,0,0,1,0,1,2,1.8,3,l,1,0.742735,1,0,1,0,1,,,,,
,,,,,,,,,,,,,,,2,3,2020-12-09_14h23.30.605,Context_Learning_Pilot,2020.1.3,MacIntel,60,,,,,,,1,media/dnnb.png,1,Symb,i,RT,0,0,2,0,1,2,1.8,3,i,1,0.675365,2,0,2,0,1,,,,,
,,,,,,,,,,,,,,,2,3,2020-12-09_14h23.30.605,Context_Learning_Pilot,2020.1.3,MacIntel,60,,,,,,,3,media/ddnb.png,2,Symb,i,RT,0,0,3,0,1,2,1.8,3,i,1,0.87653,3,0,3,0,1,,,,,
,,,,,,,,,,,,,,,2,3,2020-12-09_14h23.30.605,Context_Learning_Pilot,2020.1.3,MacIntel,60,,,,,,,2,media/dinb.png,2,Symb,u,RT,0,0,4,0,1,2,1.8,3,u,1,0.708445,4,0,4,0,1,,,,,
,,,,,,,,,,,,,,,2,3,2020-12-09_14h23.30.605,Context_Learning_Pilot,2020.1.3,MacIntel,60,,,,,,,3,media/ddnb.png,1,Symb,l,RT,0,0,5,0,1,2,1.8,3,l,1,1.14515,5,0,5,0,1,,,,,
,,,,,,,,,,,,,,,2,3,2020-12-09_14h23.30.605,Context_Learning_Pilot,2020.1.3,MacIntel,60,,,,,,,1,media/dnnb.png,1,Symb,i,RT,0,0,6,0,1,2,1.8,3,i,1,0.861625,6,0,6,0,1,,,,,
,,,,,,,,,,,,,,,2,3,2020-12-09_14h23.30.605,Context_Learning_Pilot,2020.1.3,MacIntel,60,,,,,,,0,media/djnb.png,1,Symb,u,RT,0,0,7,0,1,2,1.8,3,u,1,0.808405,7,0,7,0,1,,,,,
,,,,,,,,,,,,,,,2,3,2020-12-09_14h23.30.605,Context_Learning_Pilot,2020.1.3,MacIntel,60,,,,,,,3,media/ddnb.png,2,Symb,i,RT,0,0,8,0,1,2,1.8,3,i,1,0.71376,8,0,8,0,1,,,,,
,,,,,,,,,,,,,,,2,3,2020-12-09_14h23.30.605,Context_Learning_Pilot,2020.1.3,MacIntel,60,,,,,,,2,media/dinb.png,1,Symb,h,RT,0,0,9,0,1,2,1.8,3,h,1,1.2874,9,0,9,0,1,,,,,
,,,,,,,,,,,,,,,2,3,2020-12-09_14h23.30.605,Context_Learning_Pilot,2020.1.3,MacIntel,60,,,,,,,0,media/djnb.png,2,Symb,h,RT,0,0,10,0,1,2,1.8,3,h,1,0.78476,10,0,10,0,1,,,,,
,,,,,,,,,,,,,,,2,3,2020-12-09_14h23.30.605,Context_Learning_Pilot,2020.1.3,MacIntel,60,,,,,,,2,media/dinb.png,2,Symb,u,RT,0,0,11,0,1,2,1.8,3,u,1,0.822025,11,0,11,0,1,,,,,
,,,,,,,,,,,,,,,2,3,2020-12-09_14h23.30.605,Context_Learning_Pilot,2020.1.3,MacIntel,60,,,,,,,2,media/dinb.png,1,Symb,h,RT,0,0,12,0,1,2,1.8,3,h,1,0.657855,12,0,12,0,1,,,,,
,,,,,,,,,,,,,,,2,3,2020-12-09_14h23.30.605,Context_Learning_Pilot,2020.1.3,MacIntel,60,,,,,,,0,media/djnb.png,1,Symb,u,RT,0,0,13,0,1,2,1.8,3,u,1,0.711255,13,0,13,0,1,,,,,
,,,,,,,,,,,,,,,2,3,2020-12-09_14h23.30.605,Context_Learning_Pilot,2020.1.3,MacIntel,60,,,,,,,1,media/dnnb.png,2,Symb,l,RT,0,0,14,0,1,2,1.8,3,l,1,0.5564,14,0,14,0,1,,,,,
,,,,,,,,,,,,,,,2,3,2020-12-09_14h23.30.605,Context_Learning_Pilot,2020.1.3,MacIntel,60,,,,,,,3,media/ddnb.png,1,Symb,l,RT,0,0,15,0,1,2,1.8,3,i,0,0.928575,15,0,15,0,1,,,,,
,,,,,,,,,,,,,,,2,3,2020-12-09_14h23.30.605,Context_Learning_Pilot,2020.1.3,MacIntel,60,,,,,,,2,media/dinb.png,1,Symb,h,RT,0,0,16,0,1,2,1.8,3,h,1,0.766115,16,0,16,0,1,,,,,
,,,,,,,,,,,,,,,2,3,2020-12-09_14h23.30.605,Context_Learning_Pilot,2020.1.3,MacIntel,60,,,,,,,2,media/dinb.png,2,Symb,u,RT,0,0,17,0,1,2,1.8,3,u,1,1.317905,17,0,17,0,1,,,,,
,,,,,,,,,,,,,,,2,3,2020-12-09_14h23.30.605,Context_Learning_Pilot,2020.1.3,MacIntel,60,,,,,,,0,media/djnb.png,2,Symb,h,RT,0,0,18,0,1,2,1.8,3,h,1,0.6364,18,0,18,0,1,,,,,
,,,,,,,,,,,,,,,2,3,2020-12-09_14h23.30.605,Context_Learning_Pilot,2020.1.3,MacIntel,60,,,,,,,2,media/dinb.png,2,Symb,u,RT,0,0,19,0,1,2,1.8,3,u,1,0.765805,19,0,19,0,1,,,,,
,,,,,,,,,,,,,,,2,3,2020-12-09_14h23.30.605,Context_Learning_Pilot,2020.1.3,MacIntel,60,,,,,,,0,media/djnb.png,1,Symb,u,RT,0,0,20,0,1,2,1.8,3,u,1,0.751215,20,0,20,0,1,,,,,
,,,,,,,,,,,,,,,2,3,2020-12-09_14h23.30.605,Context_Learning_Pilot,2020.1.3,MacIntel,60,,,,,,,1,media/dnnb.png,2,Symb,l,RT,0,0,21,0,1,2,1.8,3,l,1,0.692575,21,0,21,0,1,,,,,
,,,,,,,,,,,,,,,2,3,2020-12-09_14h23.30.605,Context_Learning_Pilot,2020.1.3,MacIntel,60,,,,,,,3,media/ddnb.png,2,Symb,i,RT,0,0,22,0,1,2,1.8,3,i,1,0.66377,22,0,22,0,1,,,,,
,,,,,,,,,,,,,,,2,3,2020-12-09_14h23.30.605,Context_Learning_Pilot,2020.1.3,MacIntel,60,,,,,,,0,media/djnb.png,2,Symb,h,RT,0,0,23,0,1,2,1.8,3,h,1,0.69218,23,0,23,0,1,,,,,
,,,,,,,,,,,,,,,2,3,2020-12-09_14h23.30.605,Context_Learning_Pilot,2020.1.3,MacIntel,60,,,,,,,3,media/ddnb.png,1,Symb,l,RT,0,0,24,0,1,2,1.8,3,l,1,0.620425,24,0,24,0,1,,,,,
,,,,,,,,,,,,,,,2,3,2020-12-09_14h23.30.605,Context_Learning_Pilot,2020.1.3,MacIntel,60,,,,,,,2,media/dinb.png,1,Symb,h,RT,0,0,25,0,1,2,1.8,3,h,1,0.75402,25,0,25,0,1,,,,,
,,,,,,,,,,,,,,,2,3,2020-12-09_14h23.30.605,Context_Learning_Pilot,2020.1.3,MacIntel,60,,,,,,,0,media/djnb.png,1,Symb,u,RT,0,0,26,0,1,2,1.8,3,u,1,0.71503,26,0,26,0,1,,,,,
,,,,,,,,,,,,,,,2,3,2020-12-09_14h23.30.605,Context_Learning_Pilot,2020.1.3,MacIntel,60,,,,,,,1,media/dnnb.png,1,Symb,i,RT,0,0,27,0,1,2,1.8,3,i,1,1.084385,27,0,27,0,1,,,,,
,,,,,,,,,,,,,,,2,3,2020-12-09_14h23.30.605,Context_Learning_Pilot,2020.1.3,MacIntel,60,,,,,,,1,media/dnnb.png,1,Symb,i,RT,0,0,28,0,1,2,1.8,3,i,1,0.827555,28,0,28,0,1,,,,,
,,,,,,,,,,,,,,,2,3,2020-12-09_14h23.30.605,Context_Learning_Pilot,2020.1.3,MacIntel,60,,,,,,,1,media/dnnb.png,2,Symb,l,RT,0,0,29,0,1,2,1.8,3,l,1,0.586815,29,0,29,0,1,,,,,
,,,,,,,,,,,,,,,2,3,2020-12-09_14h23.30.605,Context_Learning_Pilot,2020.1.3,MacIntel,60,,,,,,,3,media/ddnb.png,1,Symb,l,RT,0,0,30,0,1,2,1.8,3,l,1,0.879415,30,0,30,0,1,,,,,
,,,,,,,,,,,,,,,2,3,2020-12-09_14h23.30.605,Context_Learning_Pilot,2020.1.3,MacIntel,60,,,,,,,3,media/ddnb.png,2,Symb,i,RT,0,0,31,0,1,2,1.8,3,i,1,0.68374,31,0,31,0,1,,,,,
,,,,,,,,,,,,,,,2,3,2020-12-09_14h23.30.605,Context_Learning_Pilot,2020.1.3,MacIntel,60,,,,,,,0,media/djnb.png,2,Symb,h,RT,0,0,32,0,1,2,1.8,3,h,1,1.004095,32,0,32,0,1,,,,,
,,,,,,,,,,,,,,,2,3,2020-12-09_14h23.30.605,Context_Learning_Pilot,2020.1.3,MacIntel,60,,,,,,,2,media/dinb.png,1,Symb,h,RT,0,0,33,0,1,2,1.8,3,h,1,0.70173,33,0,33,0,1,,,,,
,,,,,,,,,,,,,,,2,3,2020-12-09_14h23.30.605,Context_Learning_Pilot,2020.1.3,MacIntel,60,,,,,,,0,media/djnb.png,1,Symb,u,RT,0,0,34,0,1,2,1.8,3,u,1,0.7006,34,0,34,0,1,,,,,
,,,,,,,,,,,,,,,2,3,2020-12-09_14h23.30.605,Context_Learning_Pilot,2020.1.3,MacIntel,60,,,,,,,3,media/ddnb.png,1,Symb,l,RT,0,0,35,0,1,2,1.8,3,i,0,0.760715,35,0,35,0,1,,,,,
,,,,,,,,,,,,,,,2,3,2020-12-09_14h23.30.605,Context_Learning_Pilot,2020.1.3,MacIntel,60,,,,,,,2,media/dinb.png,2,Symb,u,RT,0,0,36,0,1,2,1.8,3,u,1,2.053845,36,0,36,0,1,,,,,
,,,,,,,,,,,,,,,2,3,2020-12-09_14h23.30.605,Context_Learning_Pilot,2020.1.3,MacIntel,60,,,,,,,2,media/dinb.png,1,Symb,h,RT,0,0,37,0,1,2,1.8,3,h,1,0.642865,37,0,37,0,1,,,,,
,,,,,,,,,,,,,,,2,3,2020-12-09_14h23.30.605,Context_Learning_Pilot,2020.1.3,MacIntel,60,,,,,,,3,media/ddnb.png,2,Symb,i,RT,0,0,38,0,1,2,1.8,3,i,1,0.725475,38,0,38,0,1,,,,,
,,,,,,,,,,,,,,,2,3,2020-12-09_14h23.30.605,Context_Learning_Pilot,2020.1.3,MacIntel,60,,,,,,,3,media/ddnb.png,1,Symb,l,RT,0,0,39,0,1,2,1.8,3,l,1,0.64876,39,0,39,0,1,,,,,
,,,,,,,,,,,,,,,2,3,2020-12-09_14h23.30.605,Context_Learning_Pilot,2020.1.3,MacIntel,60,,,,,,,3,media/ddnb.png,2,Symb,i,RT,0,0,40,0,1,2,1.8,3,i,1,0.5846,40,0,40,0,1,,,,,
,,,,,,,,,,,,,,,2,3,2020-12-09_14h23.30.605,Context_Learning_Pilot,2020.1.3,MacIntel,60,,,,,,,0,media/djnb.png,1,Symb,u,RT,0,0,41,0,1,2,1.8,3,u,1,1.1689,41,0,41,0,1,,,,,
,,,,,,,,,,,,,,,2,3,2020-12-09_14h23.30.605,Context_Learning_Pilot,2020.1.3,MacIntel,60,,,,,,,1,media/dnnb.png,1,Symb,i,RT,0,0,42,0,1,2,1.8,3,i,1,1.10383,42,0,42,0,1,,,,,
,,,,,,,,,,,,,,,2,3,2020-12-09_14h23.30.605,Context_Learning_Pilot,2020.1.3,MacIntel,60,,,,,,,1,media/dnnb.png,2,Symb,l,RT,0,0,43,0,1,2,1.8,3,l,1,0.697245,43,0,43,0,1,,,,,
,,,,,,,,,,,,,,,2,3,2020-12-09_14h23.30.605,Context_Learning_Pilot,2020.1.3,MacIntel,60,,,,,,,0,media/djnb.png,2,Symb,h,RT,0,0,44,0,1,2,1.8,3,h,1,0.571715,44,0,44,0,1,,,,,
,,,,,,,,,,,,,,,2,3,2020-12-09_14h23.30.605,Context_Learning_Pilot,2020.1.3,MacIntel,60,,,,,,,2,media/dinb.png,2,Symb,u,RT,0,0,45,0,1,2,1.8,3,u,1,1.627575,45,0,45,0,1,,,,,
,,,,,,,,,,,,,,,2,3,2020-12-09_14h23.30.605,Context_Learning_Pilot,2020.1.3,MacIntel,60,,,,,,,1,media/dnnb.png,2,Symb,l,RT,0,0,46,0,1,2,1.8,3,l,1,0.56074,46,0,46,0,1,,,,,
,,,,,,,,,,,,,,,2,3,2020-12-09_14h23.30.605,Context_Learning_Pilot,2020.1.3,MacIntel,60,,,,,,,1,media/dnnb.png,1,Symb,i,RT,0,0,47,0,1,2,1.8,3,i,1,0.652,47,0,47,0,1,,,,,
,,,,,,,,,,,,,,,2,3,2020-12-09_14h23.30.605,Context_Learning_Pilot,2020.1.3,MacIntel,60,,,,,,,1,media/dnnb.png,2,Symb,l,RT,0,0,48,0,1,2,1.8,3,l,1,0.59557,48,0,48,0,1,,,,,
,,,,,,,,,,,,,,,2,3,2020-12-09_14h23.30.605,Context_Learning_Pilot,2020.1.3,MacIntel,60,,,,,,,2,media/dinb.png,1,Symb,h,RT,0,0,49,0,1,2,1.8,3,h,1,0.655125,49,0,49,0,1,,,,,
,,,,,,,,,,,,,,,2,3,2020-12-09_14h23.30.605,Context_Learning_Pilot,2020.1.3,MacIntel,60,,,,,,,3,media/ddnb.png,2,Symb,i,RT,0,0,50,0,1,2,1.8,3,i,1,0.696375,50,0,50,0,1,,,,,
,,,,,,,,,,,,,,,2,3,2020-12-09_14h23.30.605,Context_Learning_Pilot,2020.1.3,MacIntel,60,,,,,,,2,media/dinb.png,2,Symb,u,RT,0,0,51,0,1,2,1.8,3,u,1,1.34807,51,0,51,0,1,,,,,
,,,,,,,,,,,,,,,2,3,2020-12-09_14h23.30.605,Context_Learning_Pilot,2020.1.3,MacIntel,60,,,,,,,1,media/dnnb.png,1,Symb,i,RT,0,0,52,0,1,2,1.8,3,l,0,0.72554,52,0,52,0,1,,,,,
,,,,,,,,,,,,,,,2,3,2020-12-09_14h23.30.605,Context_Learning_Pilot,2020.1.3,MacIntel,60,,,,,,,0,media/djnb.png,2,Symb,h,RT,0,0,53,0,1,2,1.8,3,h,1,0.71322,53,0,53,0,1,,,,,
,,,,,,,,,,,,,,,2,3,2020-12-09_14h23.30.605,Context_Learning_Pilot,2020.1.3,MacIntel,60,,,,,,,0,media/djnb.png,1,Symb,u,RT,0,0,54,0,1,2,1.8,3,u,1,0.653795,54,0,54,0,1,,,,,
,,,,,,,,,,,,,,,2,3,2020-12-09_14h23.30.605,Context_Learning_Pilot,2020.1.3,MacIntel,60,,,,,,,1,media/dnnb.png,1,Symb,i,RT,0,0,55,0,1,2,1.8,3,i,1,1.190895,55,0,55,0,1,,,,,
,,,,,,,,,,,,,,,2,3,2020-12-09_14h23.30.605,Context_Learning_Pilot,2020.1.3,MacIntel,60,,,,,,,3,media/ddnb.png,2,Symb,i,RT,0,0,56,0,1,2,1.8,3,i,1,0.819875,56,0,56,0,1,,,,,
,,,,,,,,,,,,,,,2,3,2020-12-09_14h23.30.605,Context_Learning_Pilot,2020.1.3,MacIntel,60,,,,,,,0,media/djnb.png,2,Symb,h,RT,0,0,57,0,1,2,1.8,3,h,1,0.6275,57,0,57,0,1,,,,,
,,,,,,,,,,,,,,,2,3,2020-12-09_14h23.30.605,Context_Learning_Pilot,2020.1.3,MacIntel,60,,,,,,,2,media/dinb.png,2,Symb,u,RT,0,0,58,0,1,2,1.8,3,u,1,0.87315,58,0,58,0,1,,,,,
,,,,,,,,,,,,,,,2,3,2020-12-09_14h23.30.605,Context_Learning_Pilot,2020.1.3,MacIntel,60,,,,,,,2,media/dinb.png,1,Symb,h,RT,0,0,59,0,1,2,1.8,3,h,1,0.647335,59,0,59,0,1,,,,,
,,,,,,,,,,,,,,,2,3,2020-12-09_14h23.30.605,Context_Learning_Pilot,2020.1.3,MacIntel,60,,,,,,,1,media/dnnb.png,2,Symb,l,RT,0,0,60,0,1,2,1.8,3,l,1,0.998915,60,0,60,0,1,,,,,
,,,,,,,,,,,,,,,2,3,2020-12-09_14h23.30.605,Context_Learning_Pilot,2020.1.3,MacIntel,60,,,,,,,3,media/ddnb.png,1,Symb,l,RT,0,0,61,0,1,2,1.8,3,l,1,1.001775,61,0,61,0,1,,,,,
,,,,,,,,,,,,,,,2,3,2020-12-09_14h23.30.605,Context_Learning_Pilot,2020.1.3,MacIntel,60,,,,,,,3,media/ddnb.png,1,Symb,l,RT,0,0,62,0,1,2,1.8,3,l,1,2.03288,62,0,62,0,1,,,,,
,,,,,,,,,,,,,,,2,3,2020-12-09_14h23.30.605,Context_Learning_Pilot,2020.1.3,MacIntel,60,,,,,,,0,media/djnb.png,1,Symb,u,RT,0,0,63,0,1,2,1.8,3,u,1,0.895255,63,0,63,0,1,,,,,
,,,,,,,,,,,,,,,2,3,2020-12-09_14h23.30.605,Context_Learning_Pilot,2020.1.3,MacIntel,60,,,,,,,3,media/ddnb.png,2,Symb,i,RT,0,0,64,0,1,2,1.8,3,i,1,1.01283,64,0,64,0,1,,,,,
,,,,,,,,,,,,,,,2,3,2020-12-09_14h23.30.605,Context_Learning_Pilot,2020.1.3,MacIntel,60,,,,,,,0,media/djnb.png,2,Symb,h,RT,0,0,65,0,1,2,1.8,3,h,1,0.644385,65,0,65,0,1,,,,,
,,,,,,,,,,,,,,,2,3,2020-12-09_14h23.30.605,Context_Learning_Pilot,2020.1.3,MacIntel,60,,,,,,,3,media/ddnb.png,2,Symb,i,RT,0,0,66,0,1,2,1.8,3,i,1,1.033415,66,0,66,0,1,,,,,
,,,,,,,,,,,,,,,2,3,2020-12-09_14h23.30.605,Context_Learning_Pilot,2020.1.3,MacIntel,60,,,,,,,2,media/dinb.png,1,Symb,h,RT,0,0,67,0,1,2,1.8,3,h,1,0.9093,67,0,67,0,1,,,,,
,,,,,,,,,,,,,,,2,3,2020-12-09_14h23.30.605,Context_Learning_Pilot,2020.1.3,MacIntel,60,,,,,,,3,media/ddnb.png,1,Symb,l,RT,0,0,68,0,1,2,1.8,3,l,1,2.116915,68,0,68,0,1,,,,,
,,,,,,,,,,,,,,,2,3,2020-12-09_14h23.30.605,Context_Learning_Pilot,2020.1.3,MacIntel,60,,,,,,,0,media/djnb.png,2,Symb,h,RT,0,0,69,0,1,2,1.8,3,h,1,0.650315,69,0,69,0,1,,,,,
,,,,,,,,,,,,,,,2,3,2020-12-09_14h23.30.605,Context_Learning_Pilot,2020.1.3,MacIntel,60,,,,,,,1,media/dnnb.png,2,Symb,l,RT,0,0,70,0,1,2,1.8,3,i,0,0.85195,70,0,70,0,1,,,,,
,,,,,,,,,,,,,,,2,3,2020-12-09_14h23.30.605,Context_Learning_Pilot,2020.1.3,MacIntel,60,,,,,,,2,media/dinb.png,2,Symb,u,RT,0,0,71,0,1,2,1.8,3,u,1,2.029315,71,0,71,0,1,,,,,
,,,,,,,,,,,,,,,2,3,2020-12-09_14h23.30.605,Context_Learning_Pilot,2020.1.3,MacIntel,60,,,,,,,3,media/ddnb.png,1,Symb,l,RT,0,0,72,0,1,2,1.8,3,l,1,0.618715,72,0,72,0,1,,,,,
,,,,,,,,,,,,,,,2,3,2020-12-09_14h23.30.605,Context_Learning_Pilot,2020.1.3,MacIntel,60,,,,,,,1,media/dnnb.png,1,Symb,i,RT,0,0,73,0,1,2,1.8,3,i,1,0.73387,73,0,73,0,1,,,,,
,,,,,,,,,,,,,,,2,3,2020-12-09_14h23.30.605,Context_Learning_Pilot,2020.1.3,MacIntel,60,,,,,,,1,media/dnnb.png,1,Symb,i,RT,0,0,74,0,1,2,1.8,3,i,1,0.534545,74,0,74,0,1,,,,,
,,,,,,,,,,,,,,,2,3,2020-12-09_14h23.30.605,Context_Learning_Pilot,2020.1.3,MacIntel,60,,,,,,,0,media/djnb.png,1,Symb,u,RT,0,0,75,0,1,2,1.8,3,u,1,0.71667,75,0,75,0,1,,,,,
,,,,,,,,,,,,,,,2,3,2020-12-09_14h23.30.605,Context_Learning_Pilot,2020.1.3,MacIntel,60,,,,,,,1,media/dnnb.png,2,Symb,l,RT,0,0,76,0,1,2,1.8,3,l,1,1.078385,76,0,76,0,1,,,,,
,,,,,,,,,,,,,,,2,3,2020-12-09_14h23.30.605,Context_Learning_Pilot,2020.1.3,MacIntel,60,,,,,,,2,media/dinb.png,2,Symb,u,RT,0,0,77,0,1,2,1.8,3,u,1,1.284175,77,0,77,0,1,,,,,
,,,,,,,,,,,,,,,2,3,2020-12-09_14h23.30.605,Context_Learning_Pilot,2020.1.3,MacIntel,60,,,,,,,0,media/djnb.png,1,Symb,u,RT,0,0,78,0,1,2,1.8,3,u,1,1.016565,78,0,78,0,1,,,,,
,,,,,,,,,,,,,,,2,3,2020-12-09_14h23.30.605,Context_Learning_Pilot,2020.1.3,MacIntel,60,,,,,,,2,media/dinb.png,1,Symb,h,RT,0,0,79,0,1,2,1.8,3,u,0,0.838095,79,0,79,0,1,,,,,
,,,,,,,,,,,,,,,2,3,2020-12-09_14h23.30.605,Context_Learning_Pilot,2020.1.3,MacIntel,60,,,,,,,2,media/dinb.png,2,Symb,u,RT,0,0,80,0,1,2,1.8,3,u,1,1.332425,80,0,80,0,1,,,,,
,,,,,,,,,,,,,,,2,3,2020-12-09_14h23.30.605,Context_Learning_Pilot,2020.1.3,MacIntel,60,,,,,,,3,media/ddnb.png,1,Symb,l,RT,0,0,81,0,1,2,1.8,3,l,1,0.870325,81,0,81,0,1,,,,,
,,,,,,,,,,,,,,,2,3,2020-12-09_14h23.30.605,Context_Learning_Pilot,2020.1.3,MacIntel,60,,,,,,,3,media/ddnb.png,2,Symb,i,RT,0,0,82,0,1,2,1.8,3,i,1,0.62839,82,0,82,0,1,,,,,
,,,,,,,,,,,,,,,2,3,2020-12-09_14h23.30.605,Context_Learning_Pilot,2020.1.3,MacIntel,60,,,,,,,2,media/dinb.png,1,Symb,h,RT,0,0,83,0,1,2,1.8,3,h,1,1.496745,83,0,83,0,1,,,,,
,,,,,,,,,,,,,,,2,3,2020-12-09_14h23.30.605,Context_Learning_Pilot,2020.1.3,MacIntel,60,,,,,,,3,media/ddnb.png,2,Symb,i,RT,0,0,84,0,1,2,1.8,3,i,1,1.51004,84,0,84,0,1,,,,,
,,,,,,,,,,,,,,,2,3,2020-12-09_14h23.30.605,Context_Learning_Pilot,2020.1.3,MacIntel,60,,,,,,,1,media/dnnb.png,2,Symb,l,RT,0,0,85,0,1,2,1.8,3,l,1,0.640405,85,0,85,0,1,,,,,
,,,,,,,,,,,,,,,2,3,2020-12-09_14h23.30.605,Context_Learning_Pilot,2020.1.3,MacIntel,60,,,,,,,3,media/ddnb.png,1,Symb,l,RT,0,0,86,0,1,2,1.8,3,i,0,0.70539,86,0,86,0,1,,,,,
,,,,,,,,,,,,,,,2,3,2020-12-09_14h23.30.605,Context_Learning_Pilot,2020.1.3,MacIntel,60,,,,,,,0,media/djnb.png,2,Symb,h,RT,0,0,87,0,1,2,1.8,3,h,1,1.002915,87,0,87,0,1,,,,,
,,,,,,,,,,,,,,,2,3,2020-12-09_14h23.30.605,Context_Learning_Pilot,2020.1.3,MacIntel,60,,,,,,,0,media/djnb.png,1,Symb,u,RT,0,0,88,0,1,2,1.8,3,u,1,2.571125,88,0,88,0,1,,,,,
,,,,,,,,,,,,,,,2,3,2020-12-09_14h23.30.605,Context_Learning_Pilot,2020.1.3,MacIntel,60,,,,,,,1,media/dnnb.png,1,Symb,i,RT,0,0,89,0,1,2,1.8,3,i,1,1.483665,89,0,89,0,1,,,,,
,,,,,,,,,,,,,,,2,3,2020-12-09_14h23.30.605,Context_Learning_Pilot,2020.1.3,MacIntel,60,,,,,,,1,media/dnnb.png,1,Symb,i,RT,0,0,90,0,1,2,1.8,3,i,1,0.547305,90,0,90,0,1,,,,,
,,,,,,,,,,,,,,,2,3,2020-12-09_14h23.30.605,Context_Learning_Pilot,2020.1.3,MacIntel,60,,,,,,,0,media/djnb.png,1,Symb,u,RT,0,0,91,0,1,2,1.8,3,u,1,0.696385,91,0,91,0,1,,,,,
,,,,,,,,,,,,,,,2,3,2020-12-09_14h23.30.605,Context_Learning_Pilot,2020.1.3,MacIntel,60,,,,,,,0,media/djnb.png,2,Symb,h,RT,0,0,92,0,1,2,1.8,3,h,1,0.632645,92,0,92,0,1,,,,,
,,,,,,,,,,,,,,,2,3,2020-12-09_14h23.30.605,Context_Learning_Pilot,2020.1.3,MacIntel,60,,,,,,,2,media/dinb.png,1,Symb,h,RT,0,0,93,0,1,2,1.8,3,h,1,0.719465,93,0,93,0,1,,,,,
,,,,,,,,,,,,,,,2,3,2020-12-09_14h23.30.605,Context_Learning_Pilot,2020.1.3,MacIntel,60,,,,,,,2,media/dinb.png,2,Symb,u,RT,0,0,94,0,1,2,1.8,3,h,0,0.532215,94,0,94,0,1,,,,,
,,,,,,,,,,,,,,,2,3,2020-12-09_14h23.30.605,Context_Learning_Pilot,2020.1.3,MacIntel,60,,,,,,,1,media/dnnb.png,2,Symb,l,RT,0,0,95,0,1,2,1.8,3,l,1,0.88256,95,0,95,0,1,,,,,
,,,,,,,,,,,,,,,2,3,2020-12-09_14h23.30.605,Context_Learning_Pilot,2020.1.3,MacIntel,60,,,,,,,,,,,,,,,,,,,,,,,,,,,,,1,0,1,0,1
,,,,,,,,,,,,,,,2,3,2020-12-09_14h23.30.605,Context_Learning_Pilot,2020.1.3,MacIntel,60,,,,,h,1.02356,3,media/ddnb.png,1,Symb,l,RT,0,0,0,0,1,3,1.8,3,l,1,1.7198,0,0,0,0,1,,,,,
,,,,,,,,,,,,,,,2,3,2020-12-09_14h23.30.605,Context_Learning_Pilot,2020.1.3,MacIntel,60,,,,,,,1,media/dnnb.png,2,Symb,l,RT,0,0,1,0,1,3,1.8,3,l,1,0.79137,1,0,1,0,1,,,,,
,,,,,,,,,,,,,,,2,3,2020-12-09_14h23.30.605,Context_Learning_Pilot,2020.1.3,MacIntel,60,,,,,,,2,media/dinb.png,1,Symb,h,RT,0,0,2,0,1,3,1.8,3,h,1,1.298445,2,0,2,0,1,,,,,
,,,,,,,,,,,,,,,2,3,2020-12-09_14h23.30.605,Context_Learning_Pilot,2020.1.3,MacIntel,60,,,,,,,1,media/dnnb.png,2,Symb,l,RT,0,0,3,0,1,3,1.8,3,l,1,0.717495,3,0,3,0,1,,,,,
,,,,,,,,,,,,,,,2,3,2020-12-09_14h23.30.605,Context_Learning_Pilot,2020.1.3,MacIntel,60,,,,,,,3,media/ddnb.png,1,Symb,l,RT,0,0,4,0,1,3,1.8,3,l,1,0.802025,4,0,4,0,1,,,,,
,,,,,,,,,,,,,,,2,3,2020-12-09_14h23.30.605,Context_Learning_Pilot,2020.1.3,MacIntel,60,,,,,,,0,media/djnb.png,1,Symb,u,RT,0,0,5,0,1,3,1.8,3,u,1,0.89754,5,0,5,0,1,,,,,
,,,,,,,,,,,,,,,2,3,2020-12-09_14h23.30.605,Context_Learning_Pilot,2020.1.3,MacIntel,60,,,,,,,1,media/dnnb.png,1,Symb,i,RT,0,0,6,0,1,3,1.8,3,i,1,0.794015,6,0,6,0,1,,,,,
,,,,,,,,,,,,,,,2,3,2020-12-09_14h23.30.605,Context_Learning_Pilot,2020.1.3,MacIntel,60,,,,,,,2,media/dinb.png,2,Symb,u,RT,0,0,7,0,1,3,1.8,3,u,1,0.96111,7,0,7,0,1,,,,,
,,,,,,,,,,,,,,,2,3,2020-12-09_14h23.30.605,Context_Learning_Pilot,2020.1.3,MacIntel,60,,,,,,,0,media/djnb.png,2,Symb,h,RT,0,0,8,0,1,3,1.8,3,h,1,0.8134,8,0,8,0,1,,,,,
,,,,,,,,,,,,,,,2,3,2020-12-09_14h23.30.605,Context_Learning_Pilot,2020.1.3,MacIntel,60,,,,,,,1,media/dnnb.png,1,Symb,i,RT,0,0,9,0,1,3,1.8,3,l,0,0.689565,9,0,9,0,1,,,,,
,,,,,,,,,,,,,,,2,3,2020-12-09_14h23.30.605,Context_Learning_Pilot,2020.1.3,MacIntel,60,,,,,,,0,media/djnb.png,2,Symb,h,RT,0,0,10,0,1,3,1.8,3,h,1,0.82316,10,0,10,0,1,,,,,
,,,,,,,,,,,,,,,2,3,2020-12-09_14h23.30.605,Context_Learning_Pilot,2020.1.3,MacIntel,60,,,,,,,2,media/dinb.png,1,Symb,h,RT,0,0,11,0,1,3,1.8,3,h,1,1.802795,11,0,11,0,1,,,,,
,,,,,,,,,,,,,,,2,3,2020-12-09_14h23.30.605,Context_Learning_Pilot,2020.1.3,MacIntel,60,,,,,,,0,media/djnb.png,1,Symb,u,RT,0,0,12,0,1,3,1.8,3,u,1,1.273,12,0,12,0,1,,,,,
,,,,,,,,,,,,,,,2,3,2020-12-09_14h23.30.605,Context_Learning_Pilot,2020.1.3,MacIntel,60,,,,,,,3,media/ddnb.png,2,Symb,i,RT,0,0,13,0,1,3,1.8,3,i,1,0.809255,13,0,13,0,1,,,,,
,,,,,,,,,,,,,,,2,3,2020-12-09_14h23.30.605,Context_Learning_Pilot,2020.1.3,MacIntel,60,,,,,,,3,media/ddnb.png,2,Symb,i,RT,0,0,14,0,1,3,1.8,3,i,1,0.52338,14,0,14,0,1,,,,,
,,,,,,,,,,,,,,,2,3,2020-12-09_14h23.30.605,Context_Learning_Pilot,2020.1.3,MacIntel,60,,,,,,,2,media/dinb.png,2,Symb,u,RT,0,0,15,0,1,3,1.8,3,h,0,0.73997,15,0,15,0,1,,,,,
,,,,,,,,,,,,,,,2,3,2020-12-09_14h23.30.605,Context_Learning_Pilot,2020.1.3,MacIntel,60,,,,,,,2,media/dinb.png,2,Symb,u,RT,0,0,16,0,1,3,1.8,3,u,1,0.80418,16,0,16,0,1,,,,,
,,,,,,,,,,,,,,,2,3,2020-12-09_14h23.30.605,Context_Learning_Pilot,2020.1.3,MacIntel,60,,,,,,,2,media/dinb.png,1,Symb,h,RT,0,0,17,0,1,3,1.8,3,h,1,0.799755,17,0,17,0,1,,,,,
,,,,,,,,,,,,,,,2,3,2020-12-09_14h23.30.605,Context_Learning_Pilot,2020.1.3,MacIntel,60,,,,,,,1,media/dnnb.png,1,Symb,i,RT,0,0,18,0,1,3,1.8,3,i,1,1.140505,18,0,18,0,1,,,,,
,,,,,,,,,,,,,,,2,3,2020-12-09_14h23.30.605,Context_Learning_Pilot,2020.1.3,MacIntel,60,,,,,,,0,media/djnb.png,1,Symb,u,RT,0,0,19,0,1,3,1.8,3,u,1,1.11188,19,0,19,0,1,,,,,
,,,,,,,,,,,,,,,2,3,2020-12-09_14h23.30.605,Context_Learning_Pilot,2020.1.3,MacIntel,60,,,,,,,2,media/dinb.png,1,Symb,h,RT,0,0,20,0,1,3,1.8,3,h,1,2.450785,20,0,20,0,1,,,,,
,,,,,,,,,,,,,,,2,3,2020-12-09_14h23.30.605,Context_Learning_Pilot,2020.1.3,MacIntel,60,,,,,,,0,media/djnb.png,2,Symb,h,RT,0,0,21,0,1,3,1.8,3,h,1,0.683025,21,0,21,0,1,,,,,
,,,,,,,,,,,,,,,2,3,2020-12-09_14h23.30.605,Context_Learning_Pilot,2020.1.3,MacIntel,60,,,,,,,3,media/ddnb.png,2,Symb,i,RT,0,0,22,0,1,3,1.8,3,i,1,1.04719,22,0,22,0,1,,,,,
,,,,,,,,,,,,,,,2,3,2020-12-09_14h23.30.605,Context_Learning_Pilot,2020.1.3,MacIntel,60,,,,,,,0,media/djnb.png,2,Symb,h,RT,0,0,23,0,1,3,1.8,3,h,1,1.33283,23,0,23,0,1,,,,,
,,,,,,,,,,,,,,,2,3,2020-12-09_14h23.30.605,Context_Learning_Pilot,2020.1.3,MacIntel,60,,,,,,,1,media/dnnb.png,2,Symb,l,RT,0,0,24,0,1,3,1.8,3,l,1,0.85602,24,0,24,0,1,,,,,
,,,,,,,,,,,,,,,2,3,2020-12-09_14h23.30.605,Context_Learning_Pilot,2020.1.3,MacIntel,60,,,,,,,3,media/ddnb.png,1,Symb,l,RT,0,0,25,0,1,3,1.8,3,i,0,2.239585,25,0,25,0,1,,,,,
,,,,,,,,,,,,,,,2,3,2020-12-09_14h23.30.605,Context_Learning_Pilot,2020.1.3,MacIntel,60,,,,,,,1,media/dnnb.png,1,Symb,i,RT,0,0,26,0,1,3,1.8,3,i,1,0.81177,26,0,26,0,1,,,,,
,,,,,,,,,,,,,,,2,3,2020-12-09_14h23.30.605,Context_Learning_Pilot,2020.1.3,MacIntel,60,,,,,,,1,media/dnnb.png,2,Symb,l,RT,0,0,27,0,1,3,1.8,3,l,1,0.615045,27,0,27,0,1,,,,,
,,,,,,,,,,,,,,,2,3,2020-12-09_14h23.30.605,Context_Learning_Pilot,2020.1.3,MacIntel,60,,,,,,,2,media/dinb.png,2,Symb,u,RT,0,0,28,0,1,3,1.8,3,u,1,0.87726,28,0,28,0,1,,,,,
,,,,,,,,,,,,,,,2,3,2020-12-09_14h23.30.605,Context_Learning_Pilot,2020.1.3,MacIntel,60,,,,,,,0,media/djnb.png,1,Symb,u,RT,0,0,29,0,1,3,1.8,3,u,1,0.94163,29,0,29,0,1,,,,,
,,,,,,,,,,,,,,,2,3,2020-12-09_14h23.30.605,Context_Learning_Pilot,2020.1.3,MacIntel,60,,,,,,,3,media/ddnb.png,2,Symb,i,RT,0,0,30,0,1,3,1.8,3,i,1,0.85747,30,0,30,0,1,,,,,
,,,,,,,,,,,,,,,2,3,2020-12-09_14h23.30.605,Context_Learning_Pilot,2020.1.3,MacIntel,60,,,,,,,3,media/ddnb.png,1,Symb,l,RT,0,0,31,0,1,3,1.8,3,l,1,0.67845,31,0,31,0,1,,,,,
,,,,,,,,,,,,,,,2,3,2020-12-09_14h23.30.605,Context_Learning_Pilot,2020.1.3,MacIntel,60,,,,,,,2,media/dinb.png,1,Symb,h,RT,0,0,32,0,1,3,1.8,3,h,1,0.66837,32,0,32,0,1,,,,,
,,,,,,,,,,,,,,,2,3,2020-12-09_14h23.30.605,Context_Learning_Pilot,2020.1.3,MacIntel,60,,,,,,,3,media/ddnb.png,2,Symb,i,RT,0,0,33,0,1,3,1.8,3,i,1,0.73546,33,0,33,0,1,,,,,
,,,,,,,,,,,,,,,2,3,2020-12-09_14h23.30.605,Context_Learning_Pilot,2020.1.3,MacIntel,60,,,,,,,1,media/dnnb.png,1,Symb,i,RT,0,0,34,0,1,3,1.8,3,i,1,0.83536,34,0,34,0,1,,,,,
,,,,,,,,,,,,,,,2,3,2020-12-09_14h23.30.605,Context_Learning_Pilot,2020.1.3,MacIntel,60,,,,,,,0,media/djnb.png,1,Symb,u,RT,0,0,35,0,1,3,1.8,3,u,1,0.63983,35,0,35,0,1,,,,,
,,,,,,,,,,,,,,,2,3,2020-12-09_14h23.30.605,Context_Learning_Pilot,2020.1.3,MacIntel,60,,,,,,,2,media/dinb.png,2,Symb,u,RT,0,0,36,0,1,3,1.8,3,u,1,0.811525,36,0,36,0,1,,,,,
,,,,,,,,,,,,,,,2,3,2020-12-09_14h23.30.605,Context_Learning_Pilot,2020.1.3,MacIntel,60,,,,,,,2,media/dinb.png,2,Symb,u,RT,0,0,37,0,1,3,1.8,3,u,1,0.966685,37,0,37,0,1,,,,,
,,,,,,,,,,,,,,,2,3,2020-12-09_14h23.30.605,Context_Learning_Pilot,2020.1.3,MacIntel,60,,,,,,,0,media/djnb.png,2,Symb,h,RT,0,0,38,0,1,3,1.8,3,h,1,0.692875,38,0,38,0,1,,,,,
,,,,,,,,,,,,,,,2,3,2020-12-09_14h23.30.605,Context_Learning_Pilot,2020.1.3,MacIntel,60,,,,,,,1,media/dnnb.png,2,Symb,l,RT,0,0,39,0,1,3,1.8,3,i,0,0.824505,39,0,39,0,1,,,,,
,,,,,,,,,,,,,,,2,3,2020-12-09_14h23.30.605,Context_Learning_Pilot,2020.1.3,MacIntel,60,,,,,,,1,media/dnnb.png,2,Symb,l,RT,0,0,40,0,1,3,1.8,3,l,1,0.61446,40,0,40,0,1,,,,,
,,,,,,,,,,,,,,,2,3,2020-12-09_14h23.30.605,Context_Learning_Pilot,2020.1.3,MacIntel,60,,,,,,,2,media/dinb.png,1,Symb,h,RT,0,0,41,0,1,3,1.8,3,h,1,0.86216,41,0,41,0,1,,,,,
,,,,,,,,,,,,,,,2,3,2020-12-09_14h23.30.605,Context_Learning_Pilot,2020.1.3,MacIntel,60,,,,,,,0,media/djnb.png,1,Symb,u,RT,0,0,42,0,1,3,1.8,3,u,1,0.724345,42,0,42,0,1,,,,,
,,,,,,,,,,,,,,,2,3,2020-12-09_14h23.30.605,Context_Learning_Pilot,2020.1.3,MacIntel,60,,,,,,,3,media/ddnb.png,2,Symb,i,RT,0,0,43,0,1,3,1.8,3,i,1,0.75879,43,0,43,0,1,,,,,
,,,,,,,,,,,,,,,2,3,2020-12-09_14h23.30.605,Context_Learning_Pilot,2020.1.3,MacIntel,60,,,,,,,1,media/dnnb.png,1,Symb,i,RT,0,0,44,0,1,3,1.8,3,i,1,0.64416,44,0,44,0,1,,,,,
,,,,,,,,,,,,,,,2,3,2020-12-09_14h23.30.605,Context_Learning_Pilot,2020.1.3,MacIntel,60,,,,,,,0,media/djnb.png,2,Symb,h,RT,0,0,45,0,1,3,1.8,3,h,1,0.84714,45,0,45,0,1,,,,,
,,,,,,,,,,,,,,,2,3,2020-12-09_14h23.30.605,Context_Learning_Pilot,2020.1.3,MacIntel,60,,,,,,,3,media/ddnb.png,1,Symb,l,RT,0,0,46,0,1,3,1.8,3,l,1,0.729345,46,0,46,0,1,,,,,
,,,,,,,,,,,,,,,2,3,2020-12-09_14h23.30.605,Context_Learning_Pilot,2020.1.3,MacIntel,60,,,,,,,3,media/ddnb.png,1,Symb,l,RT,0,0,47,0,1,3,1.8,3,l,1,0.508585,47,0,47,0,1,,,,,
,,,,,,,,,,,,,,,2,3,2020-12-09_14h23.30.605,Context_Learning_Pilot,2020.1.3,MacIntel,60,,,,,,,0,media/djnb.png,1,Symb,u,RT,0,0,48,0,1,3,1.8,3,u,1,0.790625,48,0,48,0,1,,,,,
,,,,,,,,,,,,,,,2,3,2020-12-09_14h23.30.605,Context_Learning_Pilot,2020.1.3,MacIntel,60,,,,,,,1,media/dnnb.png,2,Symb,l,RT,0,0,49,0,1,3,1.8,3,l,1,0.921435,49,0,49,0,1,,,,,
,,,,,,,,,,,,,,,2,3,2020-12-09_14h23.30.605,Context_Learning_Pilot,2020.1.3,MacIntel,60,,,,,,,2,media/dinb.png,2,Symb,u,RT,0,0,50,0,1,3,1.8,3,u,1,0.84167,50,0,50,0,1,,,,,
,,,,,,,,,,,,,,,2,3,2020-12-09_14h23.30.605,Context_Learning_Pilot,2020.1.3,MacIntel,60,,,,,,,0,media/djnb.png,2,Symb,h,RT,0,0,51,0,1,3,1.8,3,h,1,0.71411,51,0,51,0,1,,,,,
,,,,,,,,,,,,,,,2,3,2020-12-09_14h23.30.605,Context_Learning_Pilot,2020.1.3,MacIntel,60,,,,,,,3,media/ddnb.png,2,Symb,i,RT,0,0,52,0,1,3,1.8,3,i,1,0.894595,52,0,52,0,1,,,,,
,,,,,,,,,,,,,,,2,3,2020-12-09_14h23.30.605,Context_Learning_Pilot,2020.1.3,MacIntel,60,,,,,,,2,media/dinb.png,1,Symb,h,RT,0,0,53,0,1,3,1.8,3,h,1,1.05063,53,0,53,0,1,,,,,
,,,,,,,,,,,,,,,2,3,2020-12-09_14h23.30.605,Context_Learning_Pilot,2020.1.3,MacIntel,60,,,,,,,1,media/dnnb.png,2,Symb,l,RT,0,0,54,0,1,3,1.8,3,l,1,0.638515,54,0,54,0,1,,,,,
,,,,,,,,,,,,,,,2,3,2020-12-09_14h23.30.605,Context_Learning_Pilot,2020.1.3,MacIntel,60,,,,,,,3,media/ddnb.png,2,Symb,i,RT,0,0,55,0,1,3,1.8,3,i,1,0.724615,55,0,55,0,1,,,,,
,,,,,,,,,,,,,,,2,3,2020-12-09_14h23.30.605,Context_Learning_Pilot,2020.1.3,MacIntel,60,,,,,,,0,media/djnb.png,1,Symb,u,RT,0,0,56,0,1,3,1.8,3,u,1,0.732515,56,0,56,0,1,,,,,
,,,,,,,,,,,,,,,2,3,2020-12-09_14h23.30.605,Context_Learning_Pilot,2020.1.3,MacIntel,60,,,,,,,3,media/ddnb.png,1,Symb,l,RT,0,0,57,0,1,3,1.8,3,l,1,1.26528,57,0,57,0,1,,,,,
,,,,,,,,,,,,,,,2,3,2020-12-09_14h23.30.605,Context_Learning_Pilot,2020.1.3,MacIntel,60,,,,,,,0,media/djnb.png,2,Symb,h,RT,0,0,58,0,1,3,1.8,3,h,1,0.708175,58,0,58,0,1,,,,,
,,,,,,,,,,,,,,,2,3,2020-12-09_14h23.30.605,Context_Learning_Pilot,2020.1.3,MacIntel,60,,,,,,,1,media/dnnb.png,1,Symb,i,RT,0,0,59,0,1,3,1.8,3,i,1,0.82682,59,0,59,0,1,,,,,
,,,,,,,,,,,,,,,2,3,2020-12-09_14h23.30.605,Context_Learning_Pilot,2020.1.3,MacIntel,60,,,,,,,1,media/dnnb.png,1,Symb,i,RT,0,0,60,0,1,3,1.8,3,i,1,0.571345,60,0,60,0,1,,,,,
,,,,,,,,,,,,,,,2,3,2020-12-09_14h23.30.605,Context_Learning_Pilot,2020.1.3,MacIntel,60,,,,,,,3,media/ddnb.png,1,Symb,l,RT,0,0,61,0,1,3,1.8,3,l,1,0.82107,61,0,61,0,1,,,,,
,,,,,,,,,,,,,,,2,3,2020-12-09_14h23.30.605,Context_Learning_Pilot,2020.1.3,MacIntel,60,,,,,,,2,media/dinb.png,2,Symb,u,RT,0,0,62,0,1,3,1.8,3,u,1,0.889475,62,0,62,0,1,,,,,
,,,,,,,,,,,,,,,2,3,2020-12-09_14h23.30.605,Context_Learning_Pilot,2020.1.3,MacIntel,60,,,,,,,2,media/dinb.png,1,Symb,h,RT,0,0,63,0,1,3,1.8,3,h,1,0.795575,63,0,63,0,1,,,,,
,,,,,,,,,,,,,,,2,3,2020-12-09_14h23.30.605,Context_Learning_Pilot,2020.1.3,MacIntel,60,,,,,,,2,media/dinb.png,1,Symb,h,RT,0,0,64,0,1,3,1.8,3,h,1,0.58198,64,0,64,0,1,,,,,
,,,,,,,,,,,,,,,2,3,2020-12-09_14h23.30.605,Context_Learning_Pilot,2020.1.3,MacIntel,60,,,,,,,3,media/ddnb.png,1,Symb,l,RT,0,0,65,0,1,3,1.8,3,l,1,0.96043,65,0,65,0,1,,,,,
,,,,,,,,,,,,,,,2,3,2020-12-09_14h23.30.605,Context_Learning_Pilot,2020.1.3,MacIntel,60,,,,,,,2,media/dinb.png,2,Symb,u,RT,0,0,66,0,1,3,1.8,3,h,0,0.84102,66,0,66,0,1,,,,,
,,,,,,,,,,,,,,,2,3,2020-12-09_14h23.30.605,Context_Learning_Pilot,2020.1.3,MacIntel,60,,,,,,,0,media/djnb.png,1,Symb,u,RT,0,0,67,0,1,3,1.8,3,u,1,0.726945,67,0,67,0,1,,,,,
,,,,,,,,,,,,,,,2,3,2020-12-09_14h23.30.605,Context_Learning_Pilot,2020.1.3,MacIntel,60,,,,,,,1,media/dnnb.png,2,Symb,l,RT,0,0,68,0,1,3,1.8,3,l,1,0.65359,68,0,68,0,1,,,,,
,,,,,,,,,,,,,,,2,3,2020-12-09_14h23.30.605,Context_Learning_Pilot,2020.1.3,MacIntel,60,,,,,,,1,media/dnnb.png,2,Symb,l,RT,0,0,69,0,1,3,1.8,3,l,1,0.55876,69,0,69,0,1,,,,,
,,,,,,,,,,,,,,,2,3,2020-12-09_14h23.30.605,Context_Learning_Pilot,2020.1.3,MacIntel,60,,,,,,,1,media/dnnb.png,1,Symb,i,RT,0,0,70,0,1,3,1.8,3,i,1,0.630425,70,0,70,0,1,,,,,
,,,,,,,,,,,,,,,2,3,2020-12-09_14h23.30.605,Context_Learning_Pilot,2020.1.3,MacIntel,60,,,,,,,3,media/ddnb.png,2,Symb,i,RT,0,0,71,0,1,3,1.8,3,i,1,0.76297,71,0,71,0,1,,,,,
,,,,,,,,,,,,,,,2,3,2020-12-09_14h23.30.605,Context_Learning_Pilot,2020.1.3,MacIntel,60,,,,,,,2,media/dinb.png,1,Symb,h,RT,0,0,72,0,1,3,1.8,3,h,1,0.796425,72,0,72,0,1,,,,,
,,,,,,,,,,,,,,,2,3,2020-12-09_14h23.30.605,Context_Learning_Pilot,2020.1.3,MacIntel,60,,,,,,,3,media/ddnb.png,1,Symb,l,RT,0,0,73,0,1,3,1.8,3,l,1,0.89838,73,0,73,0,1,,,,,
,,,,,,,,,,,,,,,2,3,2020-12-09_14h23.30.605,Context_Learning_Pilot,2020.1.3,MacIntel,60,,,,,,,0,media/djnb.png,2,Symb,h,RT,0,0,74,0,1,3,1.8,3,h,1,0.974555,74,0,74,0,1,,,,,
,,,,,,,,,,,,,,,2,3,2020-12-09_14h23.30.605,Context_Learning_Pilot,2020.1.3,MacIntel,60,,,,,,,0,media/djnb.png,2,Symb,h,RT,0,0,75,0,1,3,1.8,3,h,1,0.499555,75,0,75,0,1,,,,,
,,,,,,,,,,,,,,,2,3,2020-12-09_14h23.30.605,Context_Learning_Pilot,2020.1.3,MacIntel,60,,,,,,,3,media/ddnb.png,2,Symb,i,RT,0,0,76,0,1,3,1.8,3,i,1,0.63315,76,0,76,0,1,,,,,
,,,,,,,,,,,,,,,2,3,2020-12-09_14h23.30.605,Context_Learning_Pilot,2020.1.3,MacIntel,60,,,,,,,0,media/djnb.png,1,Symb,u,RT,0,0,77,0,1,3,1.8,3,u,1,0.794685,77,0,77,0,1,,,,,
,,,,,,,,,,,,,,,2,3,2020-12-09_14h23.30.605,Context_Learning_Pilot,2020.1.3,MacIntel,60,,,,,,,1,media/dnnb.png,1,Symb,i,RT,0,0,78,0,1,3,1.8,3,i,1,0.754465,78,0,78,0,1,,,,,
,,,,,,,,,,,,,,,2,3,2020-12-09_14h23.30.605,Context_Learning_Pilot,2020.1.3,MacIntel,60,,,,,,,2,media/dinb.png,2,Symb,u,RT,0,0,79,0,1,3,1.8,3,u,1,0.838675,79,0,79,0,1,,,,,
,,,,,,,,,,,,,,,2,3,2020-12-09_14h23.30.605,Context_Learning_Pilot,2020.1.3,MacIntel,60,,,,,,,1,media/dnnb.png,1,Symb,i,RT,0,0,80,0,1,3,1.8,3,i,1,0.95724,80,0,80,0,1,,,,,
,,,,,,,,,,,,,,,2,3,2020-12-09_14h23.30.605,Context_Learning_Pilot,2020.1.3,MacIntel,60,,,,,,,2,media/dinb.png,2,Symb,u,RT,0,0,81,0,1,3,1.8,3,u,1,1.123425,81,0,81,0,1,,,,,
,,,,,,,,,,,,,,,2,3,2020-12-09_14h23.30.605,Context_Learning_Pilot,2020.1.3,MacIntel,60,,,,,,,1,media/dnnb.png,2,Symb,l,RT,0,0,82,0,1,3,1.8,3,l,1,0.62445,82,0,82,0,1,,,,,
,,,,,,,,,,,,,,,2,3,2020-12-09_14h23.30.605,Context_Learning_Pilot,2020.1.3,MacIntel,60,,,,,,,3,media/ddnb.png,1,Symb,l,RT,0,0,83,0,1,3,1.8,3,l,1,0.625885,83,0,83,0,1,,,,,
,,,,,,,,,,,,,,,2,3,2020-12-09_14h23.30.605,Context_Learning_Pilot,2020.1.3,MacIntel,60,,,,,,,2,media/dinb.png,2,Symb,u,RT,0,0,84,0,1,3,1.8,3,u,1,0.705685,84,0,84,0,1,,,,,
,,,,,,,,,,,,,,,2,3,2020-12-09_14h23.30.605,Context_Learning_Pilot,2020.1.3,MacIntel,60,,,,,,,1,media/dnnb.png,1,Symb,i,RT,0,0,85,0,1,3,1.8,3,i,1,0.8531,85,0,85,0,1,,,,,
,,,,,,,,,,,,,,,2,3,2020-12-09_14h23.30.605,Context_Learning_Pilot,2020.1.3,MacIntel,60,,,,,,,0,media/djnb.png,1,Symb,u,RT,0,0,86,0,1,3,1.8,3,u,1,0.7628,86,0,86,0,1,,,,,
,,,,,,,,,,,,,,,2,3,2020-12-09_14h23.30.605,Context_Learning_Pilot,2020.1.3,MacIntel,60,,,,,,,0,media/djnb.png,1,Symb,u,RT,0,0,87,0,1,3,1.8,3,u,1,0.61726,87,0,87,0,1,,,,,
,,,,,,,,,,,,,,,2,3,2020-12-09_14h23.30.605,Context_Learning_Pilot,2020.1.3,MacIntel,60,,,,,,,3,media/ddnb.png,2,Symb,i,RT,0,0,88,0,1,3,1.8,3,i,1,0.65606,88,0,88,0,1,,,,,
,,,,,,,,,,,,,,,2,3,2020-12-09_14h23.30.605,Context_Learning_Pilot,2020.1.3,MacIntel,60,,,,,,,3,media/ddnb.png,1,Symb,l,RT,0,0,89,0,1,3,1.8,3,u,0,0.710695,89,0,89,0,1,,,,,
,,,,,,,,,,,,,,,2,3,2020-12-09_14h23.30.605,Context_Learning_Pilot,2020.1.3,MacIntel,60,,,,,,,0,media/djnb.png,2,Symb,h,RT,0,0,90,0,1,3,1.8,3,h,1,1.400765,90,0,90,0,1,,,,,
,,,,,,,,,,,,,,,2,3,2020-12-09_14h23.30.605,Context_Learning_Pilot,2020.1.3,MacIntel,60,,,,,,,2,media/dinb.png,1,Symb,h,RT,0,0,91,0,1,3,1.8,3,h,1,0.93844,91,0,91,0,1,,,,,
,,,,,,,,,,,,,,,2,3,2020-12-09_14h23.30.605,Context_Learning_Pilot,2020.1.3,MacIntel,60,,,,,,,1,media/dnnb.png,2,Symb,l,RT,0,0,92,0,1,3,1.8,3,l,1,0.665015,92,0,92,0,1,,,,,
,,,,,,,,,,,,,,,2,3,2020-12-09_14h23.30.605,Context_Learning_Pilot,2020.1.3,MacIntel,60,,,,,,,0,media/djnb.png,2,Symb,h,RT,0,0,93,0,1,3,1.8,3,h,1,0.90292,93,0,93,0,1,,,,,
,,,,,,,,,,,,,,,2,3,2020-12-09_14h23.30.605,Context_Learning_Pilot,2020.1.3,MacIntel,60,,,,,,,2,media/dinb.png,1,Symb,h,RT,0,0,94,0,1,3,1.8,3,h,1,1.124295,94,0,94,0,1,,,,,
,,,,,,,,,,,,,,,2,3,2020-12-09_14h23.30.605,Context_Learning_Pilot,2020.1.3,MacIntel,60,,,,,,,3,media/ddnb.png,2,Symb,i,RT,0,0,95,0,1,3,1.8,3,i,1,0.745525,95,0,95,0,1,,,,,
,,,,,,,,,,,,,,,2,3,2020-12-09_14h23.30.605,Context_Learning_Pilot,2020.1.3,MacIntel,60,,,,,,,,,,,,,,,,,,,,,,,,,,,,,2,0,2,0,1
,,,,,,,,,,,,,,,2,3,2020-12-09_14h23.30.605,Context_Learning_Pilot,2020.1.3,MacIntel,60,,,,,h,1.066905,0,media/djnb.png,1,Symb,u,RT,0,0,0,0,1,4,1.8,3,u,1,0.92217,0,0,0,0,1,,,,,
,,,,,,,,,,,,,,,2,3,2020-12-09_14h23.30.605,Context_Learning_Pilot,2020.1.3,MacIntel,60,,,,,,,3,media/ddnb.png,2,Symb,i,RT,0,0,1,0,1,4,1.8,3,i,1,0.853875,1,0,1,0,1,,,,,
,,,,,,,,,,,,,,,2,3,2020-12-09_14h23.30.605,Context_Learning_Pilot,2020.1.3,MacIntel,60,,,,,,,1,media/dnnb.png,1,Symb,i,RT,0,0,2,0,1,4,1.8,3,i,1,0.830175,2,0,2,0,1,,,,,
,,,,,,,,,,,,,,,2,3,2020-12-09_14h23.30.605,Context_Learning_Pilot,2020.1.3,MacIntel,60,,,,,,,2,media/dinb.png,1,Symb,h,RT,0,0,3,0,1,4,1.8,3,h,1,0.91896,3,0,3,0,1,,,,,
,,,,,,,,,,,,,,,2,3,2020-12-09_14h23.30.605,Context_Learning_Pilot,2020.1.3,MacIntel,60,,,,,,,3,media/ddnb.png,2,Symb,i,RT,0,0,4,0,1,4,1.8,3,i,1,0.76512,4,0,4,0,1,,,,,
,,,,,,,,,,,,,,,2,3,2020-12-09_14h23.30.605,Context_Learning_Pilot,2020.1.3,MacIntel,60,,,,,,,2,media/dinb.png,2,Symb,u,RT,0,0,5,0,1,4,1.8,3,u,1,1.175655,5,0,5,0,1,,,,,
,,,,,,,,,,,,,,,2,3,2020-12-09_14h23.30.605,Context_Learning_Pilot,2020.1.3,MacIntel,60,,,,,,,2,media/dinb.png,2,Symb,u,RT,0,0,6,0,1,4,1.8,3,u,1,0.502365,6,0,6,0,1,,,,,
,,,,,,,,,,,,,,,2,3,2020-12-09_14h23.30.605,Context_Learning_Pilot,2020.1.3,MacIntel,60,,,,,,,1,media/dnnb.png,1,Symb,i,RT,0,0,7,0,1,4,1.8,3,i,1,0.979785,7,0,7,0,1,,,,,
,,,,,,,,,,,,,,,2,3,2020-12-09_14h23.30.605,Context_Learning_Pilot,2020.1.3,MacIntel,60,,,,,,,0,media/djnb.png,2,Symb,h,RT,0,0,8,0,1,4,1.8,3,h,1,1.087665,8,0,8,0,1,,,,,
,,,,,,,,,,,,,,,2,3,2020-12-09_14h23.30.605,Context_Learning_Pilot,2020.1.3,MacIntel,60,,,,,,,0,media/djnb.png,2,Symb,h,RT,0,0,9,0,1,4,1.8,3,h,1,0.478075,9,0,9,0,1,,,,,
,,,,,,,,,,,,,,,2,3,2020-12-09_14h23.30.605,Context_Learning_Pilot,2020.1.3,MacIntel,60,,,,,,,2,media/dinb.png,1,Symb,h,RT,0,0,10,0,1,4,1.8,3,h,1,0.96595,10,0,10,0,1,,,,,
,,,,,,,,,,,,,,,2,3,2020-12-09_14h23.30.605,Context_Learning_Pilot,2020.1.3,MacIntel,60,,,,,,,3,media/ddnb.png,1,Symb,l,RT,0,0,11,0,1,4,1.8,3,l,1,0.94029,11,0,11,0,1,,,,,
,,,,,,,,,,,,,,,2,3,2020-12-09_14h23.30.605,Context_Learning_Pilot,2020.1.3,MacIntel,60,,,,,,,0,media/djnb.png,1,Symb,u,RT,0,0,12,0,1,4,1.8,3,h,0,0.88262,12,0,12,0,1,,,,,
,,,,,,,,,,,,,,,2,3,2020-12-09_14h23.30.605,Context_Learning_Pilot,2020.1.3,MacIntel,60,,,,,,,3,media/ddnb.png,1,Symb,l,RT,0,0,13,0,1,4,1.8,3,l,1,1.57344,13,0,13,0,1,,,,,
,,,,,,,,,,,,,,,2,3,2020-12-09_14h23.30.605,Context_Learning_Pilot,2020.1.3,MacIntel,60,,,,,,,1,media/dnnb.png,2,Symb,l,RT,0,0,14,0,1,4,1.8,3,l,1,0.648525,14,0,14,0,1,,,,,
,,,,,,,,,,,,,,,2,3,2020-12-09_14h23.30.605,Context_Learning_Pilot,2020.1.3,MacIntel,60,,,,,,,1,media/dnnb.png,2,Symb,l,RT,0,0,15,0,1,4,1.8,3,l,1,0.5438,15,0,15,0,1,,,,,
,,,,,,,,,,,,,,,2,3,2020-12-09_14h23.30.605,Context_Learning_Pilot,2020.1.3,MacIntel,60,,,,,,,1,media/dnnb.png,1,Symb,i,RT,0,0,16,0,1,4,1.8,3,i,1,1.585095,16,0,16,0,1,,,,,
,,,,,,,,,,,,,,,2,3,2020-12-09_14h23.30.605,Context_Learning_Pilot,2020.1.3,MacIntel,60,,,,,,,3,media/ddnb.png,1,Symb,l,RT,0,0,17,0,1,4,1.8,3,l,1,2.99381,17,0,17,0,1,,,,,
,,,,,,,,,,,,,,,2,3,2020-12-09_14h23.30.605,Context_Learning_Pilot,2020.1.3,MacIntel,60,,,,,,,2,media/dinb.png,2,Symb,u,RT,0,0,18,0,1,4,1.8,3,u,1,0.949035,18,0,18,0,1,,,,,
,,,,,,,,,,,,,,,2,3,2020-12-09_14h23.30.605,Context_Learning_Pilot,2020.1.3,MacIntel,60,,,,,,,2,media/dinb.png,2,Symb,u,RT,0,0,19,0,1,4,1.8,3,h,0,0.86876,19,0,19,0,1,,,,,
,,,,,,,,,,,,,,,2,3,2020-12-09_14h23.30.605,Context_Learning_Pilot,2020.1.3,MacIntel,60,,,,,,,1,media/dnnb.png,1,Symb,i,RT,0,0,20,0,1,4,1.8,3,i,1,0.8109,20,0,20,0,1,,,,,
,,,,,,,,,,,,,,,2,3,2020-12-09_14h23.30.605,Context_Learning_Pilot,2020.1.3,MacIntel,60,,,,,,,3,media/ddnb.png,1,Symb,l,RT,0,0,21,0,1,4,1.8,3,l,1,0.752145,21,0,21,0,1,,,,,
,,,,,,,,,,,,,,,2,3,2020-12-09_14h23.30.605,Context_Learning_Pilot,2020.1.3,MacIntel,60,,,,,,,3,media/ddnb.png,2,Symb,i,RT,0,0,22,0,1,4,1.8,3,i,1,0.902825,22,0,22,0,1,,,,,
,,,,,,,,,,,,,,,2,3,2020-12-09_14h23.30.605,Context_Learning_Pilot,2020.1.3,MacIntel,60,,,,,,,2,media/dinb.png,1,Symb,h,RT,0,0,23,0,1,4,1.8,3,h,1,1.731575,23,0,23,0,1,,,,,
,,,,,,,,,,,,,,,2,3,2020-12-09_14h23.30.605,Context_Learning_Pilot,2020.1.3,MacIntel,60,,,,,,,0,media/djnb.png,2,Symb,h,RT,0,0,24,0,1,4,1.8,3,h,1,0.852415,24,0,24,0,1,,,,,
,,,,,,,,,,,,,,,2,3,2020-12-09_14h23.30.605,Context_Learning_Pilot,2020.1.3,MacIntel,60,,,,,,,0,media/djnb.png,1,Symb,u,RT,0,0,25,0,1,4,1.8,3,u,1,1.833165,25,0,25,0,1,,,,,
,,,,,,,,,,,,,,,2,3,2020-12-09_14h23.30.605,Context_Learning_Pilot,2020.1.3,MacIntel,60,,,,,,,3,media/ddnb.png,2,Symb,i,RT,0,0,26,0,1,4,1.8,3,i,1,0.949045,26,0,26,0,1,,,,,
,,,,,,,,,,,,,,,2,3,2020-12-09_14h23.30.605,Context_Learning_Pilot,2020.1.3,MacIntel,60,,,,,,,0,media/djnb.png,2,Symb,h,RT,0,0,27,0,1,4,1.8,3,h,1,0.75169,27,0,27,0,1,,,,,
,,,,,,,,,,,,,,,2,3,2020-12-09_14h23.30.605,Context_Learning_Pilot,2020.1.3,MacIntel,60,,,,,,,1,media/dnnb.png,2,Symb,l,RT,0,0,28,0,1,4,1.8,3,l,1,0.77044,28,0,28,0,1,,,,,
,,,,,,,,,,,,,,,2,3,2020-12-09_14h23.30.605,Context_Learning_Pilot,2020.1.3,MacIntel,60,,,,,,,2,media/dinb.png,1,Symb,h,RT,0,0,29,0,1,4,1.8,3,h,1,0.98021,29,0,29,0,1,,,,,
,,,,,,,,,,,,,,,2,3,2020-12-09_14h23.30.605,Context_Learning_Pilot,2020.1.3,MacIntel,60,,,,,,,0,media/djnb.png,1,Symb,u,RT,0,0,30,0,1,4,1.8,3,u,1,1.54934,30,0,30,0,1,,,,,
,,,,,,,,,,,,,,,2,3,2020-12-09_14h23.30.605,Context_Learning_Pilot,2020.1.3,MacIntel,60,,,,,,,1,media/dnnb.png,2,Symb,l,RT,0,0,31,0,1,4,1.8,3,l,1,0.825805,31,0,31,0,1,,,,,
,,,,,,,,,,,,,,,2,3,2020-12-09_14h23.30.605,Context_Learning_Pilot,2020.1.3,MacIntel,60,,,,,,,2,media/dinb.png,2,Symb,u,RT,0,0,32,0,1,4,1.8,3,u,1,0.767785,32,0,32,0,1,,,,,
,,,,,,,,,,,,,,,2,3,2020-12-09_14h23.30.605,Context_Learning_Pilot,2020.1.3,MacIntel,60,,,,,,,2,media/dinb.png,1,Symb,h,RT,0,0,33,0,1,4,1.8,3,h,1,1.145275,33,0,33,0,1,,,,,
,,,,,,,,,,,,,,,2,3,2020-12-09_14h23.30.605,Context_Learning_Pilot,2020.1.3,MacIntel,60,,,,,,,2,media/dinb.png,2,Symb,u,RT,0,0,34,0,1,4,1.8,3,u,1,0.690755,34,0,34,0,1,,,,,
,,,,,,,,,,,,,,,2,3,2020-12-09_14h23.30.605,Context_Learning_Pilot,2020.1.3,MacIntel,60,,,,,,,1,media/dnnb.png,1,Symb,i,RT,0,0,35,0,1,4,1.8,3,i,1,1.548975,35,0,35,0,1,,,,,
,,,,,,,,,,,,,,,2,3,2020-12-09_14h23.30.605,Context_Learning_Pilot,2020.1.3,MacIntel,60,,,,,,,0,media/djnb.png,2,Symb,h,RT,0,0,36,0,1,4,1.8,3,h,1,0.631385,36,0,36,0,1,,,,,
,,,,,,,,,,,,,,,2,3,2020-12-09_14h23.30.605,Context_Learning_Pilot,2020.1.3,MacIntel,60,,,,,,,1,media/dnnb.png,1,Symb,i,RT,0,0,37,0,1,4,1.8,3,i,1,1.723375,37,0,37,0,1,,,,,
,,,,,,,,,,,,,,,2,3,2020-12-09_14h23.30.605,Context_Learning_Pilot,2020.1.3,MacIntel,60,,,,,,,0,media/djnb.png,1,Symb,u,RT,0,0,38,0,1,4,1.8,3,u,1,0.91819,38,0,38,0,1,,,,,
,,,,,,,,,,,,,,,2,3,2020-12-09_14h23.30.605,Context_Learning_Pilot,2020.1.3,MacIntel,60,,,,,,,3,media/ddnb.png,1,Symb,l,RT,0,0,39,0,1,4,1.8,3,l,1,0.901805,39,0,39,0,1,,,,,
,,,,,,,,,,,,,,,2,3,2020-12-09_14h23.30.605,Context_Learning_Pilot,2020.1.3,MacIntel,60,,,,,,,3,media/ddnb.png,2,Symb,i,RT,0,0,40,0,1,4,1.8,3,i,1,0.725465,40,0,40,0,1,,,,,
,,,,,,,,,,,,,,,2,3,2020-12-09_14h23.30.605,Context_Learning_Pilot,2020.1.3,MacIntel,60,,,,,,,3,media/ddnb.png,2,Symb,i,RT,0,0,41,0,1,4,1.8,3,i,1,0.64552,41,0,41,0,1,,,,,
,,,,,,,,,,,,,,,2,3,2020-12-09_14h23.30.605,Context_Learning_Pilot,2020.1.3,MacIntel,60,,,,,,,1,media/dnnb.png,2,Symb,l,RT,0,0,42,0,1,4,1.8,3,l,1,0.762575,42,0,42,0,1,,,,,
,,,,,,,,,,,,,,,2,3,2020-12-09_14h23.30.605,Context_Learning_Pilot,2020.1.3,MacIntel,60,,,,,,,1,media/dnnb.png,2,Symb,l,RT,0,0,43,0,1,4,1.8,3,l,1,0.530625,43,0,43,0,1,,,,,
,,,,,,,,,,,,,,,2,3,2020-12-09_14h23.30.605,Context_Learning_Pilot,2020.1.3,MacIntel,60,,,,,,,0,media/djnb.png,2,Symb,h,RT,0,0,44,0,1,4,1.8,3,u,0,0.71059,44,0,44,0,1,,,,,
,,,,,,,,,,,,,,,2,3,2020-12-09_14h23.30.605,Context_Learning_Pilot,2020.1.3,MacIntel,60,,,,,,,3,media/ddnb.png,1,Symb,l,RT,0,0,45,0,1,4,1.8,3,l,1,1.638885,45,0,45,0,1,,,,,
,,,,,,,,,,,,,,,2,3,2020-12-09_14h23.30.605,Context_Learning_Pilot,2020.1.3,MacIntel,60,,,,,,,2,media/dinb.png,1,Symb,h,RT,0,0,46,0,1,4,1.8,3,h,1,0.82448,46,0,46,0,1,,,,,
,,,,,,,,,,,,,,,2,3,2020-12-09_14h23.30.605,Context_Learning_Pilot,2020.1.3,MacIntel,60,,,,,,,0,media/djnb.png,1,Symb,u,RT,0,0,47,0,1,4,1.8,3,u,1,1.049295,47,0,47,0,1,,,,,
,,,,,,,,,,,,,,,2,3,2020-12-09_14h23.30.605,Context_Learning_Pilot,2020.1.3,MacIntel,60,,,,,,,2,media/dinb.png,1,Symb,h,RT,0,0,48,0,1,4,1.8,3,h,1,0.975925,48,0,48,0,1,,,,,
,,,,,,,,,,,,,,,2,3,2020-12-09_14h23.30.605,Context_Learning_Pilot,2020.1.3,MacIntel,60,,,,,,,3,media/ddnb.png,2,Symb,i,RT,0,0,49,0,1,4,1.8,3,i,1,1.50334,49,0,49,0,1,,,,,
,,,,,,,,,,,,,,,2,3,2020-12-09_14h23.30.605,Context_Learning_Pilot,2020.1.3,MacIntel,60,,,,,,,1,media/dnnb.png,1,Symb,i,RT,0,0,50,0,1,4,1.8,3,i,1,0.76808,50,0,50,0,1,,,,,
,,,,,,,,,,,,,,,2,3,2020-12-09_14h23.30.605,Context_Learning_Pilot,2020.1.3,MacIntel,60,,,,,,,3,media/ddnb.png,2,Symb,i,RT,0,0,51,0,1,4,1.8,3,i,1,0.66229,51,0,51,0,1,,,,,
,,,,,,,,,,,,,,,2,3,2020-12-09_14h23.30.605,Context_Learning_Pilot,2020.1.3,MacIntel,60,,,,,,,3,media/ddnb.png,1,Symb,l,RT,0,0,52,0,1,4,1.8,3,l,1,0.93172,52,0,52,0,1,,,,,
,,,,,,,,,,,,,,,2,3,2020-12-09_14h23.30.605,Context_Learning_Pilot,2020.1.3,MacIntel,60,,,,,,,3,media/ddnb.png,1,Symb,l,RT,0,0,53,0,1,4,1.8,3,l,1,0.580825,53,0,53,0,1,,,,,
,,,,,,,,,,,,,,,2,3,2020-12-09_14h23.30.605,Context_Learning_Pilot,2020.1.3,MacIntel,60,,,,,,,0,media/djnb.png,2,Symb,h,RT,0,0,54,0,1,4,1.8,3,u,0,1.087655,54,0,54,0,1,,,,,
,,,,,,,,,,,,,,,2,3,2020-12-09_14h23.30.605,Context_Learning_Pilot,2020.1.3,MacIntel,60,,,,,,,0,media/djnb.png,1,Symb,u,RT,0,0,55,0,1,4,1.8,3,u,1,0.720535,55,0,55,0,1,,,,,
,,,,,,,,,,,,,,,2,3,2020-12-09_14h23.30.605,Context_Learning_Pilot,2020.1.3,MacIntel,60,,,,,,,2,media/dinb.png,2,Symb,u,RT,0,0,56,0,1,4,1.8,3,h,0,2.30404,56,0,56,0,1,,,,,
,,,,,,,,,,,,,,,2,3,2020-12-09_14h23.30.605,Context_Learning_Pilot,2020.1.3,MacIntel,60,,,,,,,2,media/dinb.png,1,Symb,h,RT,0,0,57,0,1,4,1.8,3,h,1,1.037945,57,0,57,0,1,,,,,
,,,,,,,,,,,,,,,2,3,2020-12-09_14h23.30.605,Context_Learning_Pilot,2020.1.3,MacIntel,60,,,,,,,1,media/dnnb.png,2,Symb,l,RT,0,0,58,0,1,4,1.8,3,l,1,0.63427,58,0,58,0,1,,,,,
,,,,,,,,,,,,,,,2,3,2020-12-09_14h23.30.605,Context_Learning_Pilot,2020.1.3,MacIntel,60,,,,,,,0,media/djnb.png,1,Symb,u,RT,0,0,59,0,1,4,1.8,3,u,1,0.659135,59,0,59,0,1,,,,,
,,,,,,,,,,,,,,,2,3,2020-12-09_14h23.30.605,Context_Learning_Pilot,2020.1.3,MacIntel,60,,,,,,,0,media/djnb.png,2,Symb,h,RT,0,0,60,0,1,4,1.8,3,h,1,1.348265,60,0,60,0,1,,,,,
,,,,,,,,,,,,,,,2,3,2020-12-09_14h23.30.605,Context_Learning_Pilot,2020.1.3,MacIntel,60,,,,,,,2,media/dinb.png,2,Symb,u,RT,0,0,61,0,1,4,1.8,3,u,1,1.059345,61,0,61,0,1,,,,,
,,,,,,,,,,,,,,,2,3,2020-12-09_14h23.30.605,Context_Learning_Pilot,2020.1.3,MacIntel,60,,,,,,,1,media/dnnb.png,1,Symb,i,RT,0,0,62,0,1,4,1.8,3,i,1,1.32097,62,0,62,0,1,,,,,
,,,,,,,,,,,,,,,2,3,2020-12-09_14h23.30.605,Context_Learning_Pilot,2020.1.3,MacIntel,60,,,,,,,1,media/dnnb.png,2,Symb,l,RT,0,0,63,0,1,4,1.8,3,l,1,0.769315,63,0,63,0,1,,,,,
,,,,,,,,,,,,,,,2,3,2020-12-09_14h23.30.605,Context_Learning_Pilot,2020.1.3,MacIntel,60,,,,,,,2,media/dinb.png,1,Symb,h,RT,0,0,64,0,1,4,1.8,3,u,0,0.802215,64,0,64,0,1,,,,,
,,,,,,,,,,,,,,,2,3,2020-12-09_14h23.30.605,Context_Learning_Pilot,2020.1.3,MacIntel,60,,,,,,,1,media/dnnb.png,2,Symb,l,RT,0,0,65,0,1,4,1.8,3,l,1,0.754375,65,0,65,0,1,,,,,
,,,,,,,,,,,,,,,2,3,2020-12-09_14h23.30.605,Context_Learning_Pilot,2020.1.3,MacIntel,60,,,,,,,3,media/ddnb.png,1,Symb,l,RT,0,0,66,0,1,4,1.8,3,l,1,0.9414,66,0,66,0,1,,,,,
,,,,,,,,,,,,,,,2,3,2020-12-09_14h23.30.605,Context_Learning_Pilot,2020.1.3,MacIntel,60,,,,,,,0,media/djnb.png,2,Symb,h,RT,0,0,67,0,1,4,1.8,3,h,1,0.67498,67,0,67,0,1,,,,,
,,,,,,,,,,,,,,,2,3,2020-12-09_14h23.30.605,Context_Learning_Pilot,2020.1.3,MacIntel,60,,,,,,,3,media/ddnb.png,1,Symb,l,RT,0,0,68,0,1,4,1.8,3,l,1,0.778995,68,0,68,0,1,,,,,
,,,,,,,,,,,,,,,2,3,2020-12-09_14h23.30.605,Context_Learning_Pilot,2020.1.3,MacIntel,60,,,,,,,0,media/djnb.png,1,Symb,u,RT,0,0,69,0,1,4,1.8,3,u,1,0.892435,69,0,69,0,1,,,,,
,,,,,,,,,,,,,,,2,3,2020-12-09_14h23.30.605,Context_Learning_Pilot,2020.1.3,MacIntel,60,,,,,,,0,media/djnb.png,1,Symb,u,RT,0,0,70,0,1,4,1.8,3,u,1,0.49871,70,0,70,0,1,,,,,
,,,,,,,,,,,,,,,2,3,2020-12-09_14h23.30.605,Context_Learning_Pilot,2020.1.3,MacIntel,60,,,,,,,0,media/djnb.png,2,Symb,h,RT,0,0,71,0,1,4,1.8,3,h,1,0.629125,71,0,71,0,1,,,,,
,,,,,,,,,,,,,,,2,3,2020-12-09_14h23.30.605,Context_Learning_Pilot,2020.1.3,MacIntel,60,,,,,,,2,media/dinb.png,2,Symb,u,RT,0,0,72,0,1,4,1.8,3,u,1,1.67949,72,0,72,0,1,,,,,
,,,,,,,,,,,,,,,2,3,2020-12-09_14h23.30.605,Context_Learning_Pilot,2020.1.3,MacIntel,60,,,,,,,2,media/dinb.png,1,Symb,h,RT,0,0,73,0,1,4,1.8,3,h,1,0.751485,73,0,73,0,1,,,,,
,,,,,,,,,,,,,,,2,3,2020-12-09_14h23.30.605,Context_Learning_Pilot,2020.1.3,MacIntel,60,,,,,,,2,media/dinb.png,2,Symb,u,RT,0,0,74,0,1,4,1.8,3,h,0,0.526765,74,0,74,0,1,,,,,
,,,,,,,,,,,,,,,2,3,2020-12-09_14h23.30.605,Context_Learning_Pilot,2020.1.3,MacIntel,60,,,,,,,1,media/dnnb.png,2,Symb,l,RT,0,0,75,0,1,4,1.8,3,l,1,0.798235,75,0,75,0,1,,,,,
,,,,,,,,,,,,,,,2,3,2020-12-09_14h23.30.605,Context_Learning_Pilot,2020.1.3,MacIntel,60,,,,,,,1,media/dnnb.png,1,Symb,i,RT,0,0,76,0,1,4,1.8,3,i,1,1.005255,76,0,76,0,1,,,,,
,,,,,,,,,,,,,,,2,3,2020-12-09_14h23.30.605,Context_Learning_Pilot,2020.1.3,MacIntel,60,,,,,,,3,media/ddnb.png,2,Symb,i,RT,0,0,77,0,1,4,1.8,3,i,1,1.465,77,0,77,0,1,,,,,
,,,,,,,,,,,,,,,2,3,2020-12-09_14h23.30.605,Context_Learning_Pilot,2020.1.3,MacIntel,60,,,,,,,3,media/ddnb.png,2,Symb,i,RT,0,0,78,0,1,4,1.8,3,i,1,0.50987,78,0,78,0,1,,,,,
,,,,,,,,,,,,,,,2,3,2020-12-09_14h23.30.605,Context_Learning_Pilot,2020.1.3,MacIntel,60,,,,,,,1,media/dnnb.png,1,Symb,i,RT,0,0,79,0,1,4,1.8,3,i,1,0.980285,79,0,79,0,1,,,,,
,,,,,,,,,,,,,,,2,3,2020-12-09_14h23.30.605,Context_Learning_Pilot,2020.1.3,MacIntel,60,,,,,,,2,media/dinb.png,2,Symb,u,RT,0,0,80,0,1,4,1.8,3,u,1,1.283995,80,0,80,0,1,,,,,
,,,,,,,,,,,,,,,2,3,2020-12-09_14h23.30.605,Context_Learning_Pilot,2020.1.3,MacIntel,60,,,,,,,2,media/dinb.png,2,Symb,u,RT,0,0,81,0,1,4,1.8,3,u,1,0.482725,81,0,81,0,1,,,,,
,,,,,,,,,,,,,,,2,3,2020-12-09_14h23.30.605,Context_Learning_Pilot,2020.1.3,MacIntel,60,,,,,,,0,media/djnb.png,1,Symb,u,RT,0,0,82,0,1,4,1.8,3,u,1,0.87039,82,0,82,0,1,,,,,
,,,,,,,,,,,,,,,2,3,2020-12-09_14h23.30.605,Context_Learning_Pilot,2020.1.3,MacIntel,60,,,,,,,1,media/dnnb.png,1,Symb,i,RT,0,0,83,0,1,4,1.8,3,i,1,1.15959,83,0,83,0,1,,,,,
,,,,,,,,,,,,,,,2,3,2020-12-09_14h23.30.605,Context_Learning_Pilot,2020.1.3,MacIntel,60,,,,,,,3,media/ddnb.png,1,Symb,l,RT,0,0,84,0,1,4,1.8,3,l,1,0.904535,84,0,84,0,1,,,,,
,,,,,,,,,,,,,,,2,3,2020-12-09_14h23.30.605,Context_Learning_Pilot,2020.1.3,MacIntel,60,,,,,,,2,media/dinb.png,1,Symb,h,RT,0,0,85,0,1,4,1.8,3,u,0,0.94095,85,0,85,0,1,,,,,
,,,,,,,,,,,,,,,2,3,2020-12-09_14h23.30.605,Context_Learning_Pilot,2020.1.3,MacIntel,60,,,,,,,1,media/dnnb.png,2,Symb,l,RT,0,0,86,0,1,4,1.8,3,l,1,0.693825,86,0,86,0,1,,,,,
,,,,,,,,,,,,,,,2,3,2020-12-09_14h23.30.605,Context_Learning_Pilot,2020.1.3,MacIntel,60,,,,,,,2,media/dinb.png,1,Symb,h,RT,0,0,87,0,1,4,1.8,3,h,1,0.828875,87,0,87,0,1,,,,,
,,,,,,,,,,,,,,,2,3,2020-12-09_14h23.30.605,Context_Learning_Pilot,2020.1.3,MacIntel,60,,,,,,,1,media/dnnb.png,1,Symb,i,RT,0,0,88,0,1,4,1.8,3,i,1,1.08444,88,0,88,0,1,,,,,
,,,,,,,,,,,,,,,2,3,2020-12-09_14h23.30.605,Context_Learning_Pilot,2020.1.3,MacIntel,60,,,,,,,0,media/djnb.png,1,Symb,u,RT,0,0,89,0,1,4,1.8,3,u,1,1.77188,89,0,89,0,1,,,,,
,,,,,,,,,,,,,,,2,3,2020-12-09_14h23.30.605,Context_Learning_Pilot,2020.1.3,MacIntel,60,,,,,,,0,media/djnb.png,2,Symb,h,RT,0,0,90,0,1,4,1.8,3,h,1,0.56139,90,0,90,0,1,,,,,
,,,,,,,,,,,,,,,2,3,2020-12-09_14h23.30.605,Context_Learning_Pilot,2020.1.3,MacIntel,60,,,,,,,3,media/ddnb.png,2,Symb,i,RT,0,0,91,0,1,4,1.8,3,i,1,0.93568,91,0,91,0,1,,,,,
,,,,,,,,,,,,,,,2,3,2020-12-09_14h23.30.605,Context_Learning_Pilot,2020.1.3,MacIntel,60,,,,,,,3,media/ddnb.png,1,Symb,l,RT,0,0,92,0,1,4,1.8,3,l,1,0.86525,92,0,92,0,1,,,,,
,,,,,,,,,,,,,,,2,3,2020-12-09_14h23.30.605,Context_Learning_Pilot,2020.1.3,MacIntel,60,,,,,,,0,media/djnb.png,2,Symb,h,RT,0,0,93,0,1,4,1.8,3,h,1,1.204185,93,0,93,0,1,,,,,
,,,,,,,,,,,,,,,2,3,2020-12-09_14h23.30.605,Context_Learning_Pilot,2020.1.3,MacIntel,60,,,,,,,1,media/dnnb.png,2,Symb,l,RT,0,0,94,0,1,4,1.8,3,l,1,0.98189,94,0,94,0,1,,,,,
,,,,,,,,,,,,,,,2,3,2020-12-09_14h23.30.605,Context_Learning_Pilot,2020.1.3,MacIntel,60,,,,,,,3,media/ddnb.png,2,Symb,i,RT,0,0,95,0,1,4,1.8,3,i,1,0.760405,95,0,95,0,1,,,,,
,,,,,,,,,,,,,,,2,3,2020-12-09_14h23.30.605,Context_Learning_Pilot,2020.1.3,MacIntel,60,,,,,,,,,,,,,,,,,,,,,,,,,,,,,3,0,3,0,1
,,,,,,,,,,,,,,,2,3,2020-12-09_14h23.30.605,Context_Learning_Pilot,2020.1.3,MacIntel,60,,,,,u,4.14797,2,media/dinb.png,1,Symb,h,RT,0,0,0,0,1,5,1.8,3,h,1,0.93228,0,0,0,0,1,,,,,
,,,,,,,,,,,,,,,2,3,2020-12-09_14h23.30.605,Context_Learning_Pilot,2020.1.3,MacIntel,60,,,,,,,1,media/dnnb.png,2,Symb,l,RT,0,0,1,0,1,5,1.8,3,l,1,0.68155,1,0,1,0,1,,,,,
,,,,,,,,,,,,,,,2,3,2020-12-09_14h23.30.605,Context_Learning_Pilot,2020.1.3,MacIntel,60,,,,,,,0,media/djnb.png,1,Symb,u,RT,0,0,2,0,1,5,1.8,3,u,1,0.68125,2,0,2,0,1,,,,,
,,,,,,,,,,,,,,,2,3,2020-12-09_14h23.30.605,Context_Learning_Pilot,2020.1.3,MacIntel,60,,,,,,,3,media/ddnb.png,2,Symb,i,RT,0,0,3,0,1,5,1.8,3,i,1,1.5735,3,0,3,0,1,,,,,
,,,,,,,,,,,,,,,2,3,2020-12-09_14h23.30.605,Context_Learning_Pilot,2020.1.3,MacIntel,60,,,,,,,1,media/dnnb.png,1,Symb,i,RT,0,0,4,0,1,5,1.8,3,i,1,0.85015,4,0,4,0,1,,,,,
,,,,,,,,,,,,,,,2,3,2020-12-09_14h23.30.605,Context_Learning_Pilot,2020.1.3,MacIntel,60,,,,,,,0,media/djnb.png,1,Symb,u,RT,0,0,5,0,1,5,1.8,3,u,1,0.886935,5,0,5,0,1,,,,,
,,,,,,,,,,,,,,,2,3,2020-12-09_14h23.30.605,Context_Learning_Pilot,2020.1.3,MacIntel,60,,,,,,,2,media/dinb.png,2,Symb,u,RT,0,0,6,0,1,5,1.8,3,u,1,1.06776,6,0,6,0,1,,,,,
,,,,,,,,,,,,,,,2,3,2020-12-09_14h23.30.605,Context_Learning_Pilot,2020.1.3,MacIntel,60,,,,,,,0,media/djnb.png,2,Symb,h,RT,0,0,7,0,1,5,1.8,3,h,1,0.6283,7,0,7,0,1,,,,,
,,,,,,,,,,,,,,,2,3,2020-12-09_14h23.30.605,Context_Learning_Pilot,2020.1.3,MacIntel,60,,,,,,,3,media/ddnb.png,1,Symb,l,RT,0,0,8,0,1,5,1.8,3,l,1,1.3173,8,0,8,0,1,,,,,
,,,,,,,,,,,,,,,2,3,2020-12-09_14h23.30.605,Context_Learning_Pilot,2020.1.3,MacIntel,60,,,,,,,2,media/dinb.png,2,Symb,u,RT,0,0,9,0,1,5,1.8,3,u,1,1.216005,9,0,9,0,1,,,,,
,,,,,,,,,,,,,,,2,3,2020-12-09_14h23.30.605,Context_Learning_Pilot,2020.1.3,MacIntel,60,,,,,,,3,media/ddnb.png,1,Symb,l,RT,0,0,10,0,1,5,1.8,3,l,1,0.576015,10,0,10,0,1,,,,,
,,,,,,,,,,,,,,,2,3,2020-12-09_14h23.30.605,Context_Learning_Pilot,2020.1.3,MacIntel,60,,,,,,,2,media/dinb.png,1,Symb,h,RT,0,0,11,0,1,5,1.8,3,h,1,1.154615,11,0,11,0,1,,,,,
,,,,,,,,,,,,,,,2,3,2020-12-09_14h23.30.605,Context_Learning_Pilot,2020.1.3,MacIntel,60,,,,,,,3,media/ddnb.png,2,Symb,i,RT,0,0,12,0,1,5,1.8,3,i,1,1.080985,12,0,12,0,1,,,,,
,,,,,,,,,,,,,,,2,3,2020-12-09_14h23.30.605,Context_Learning_Pilot,2020.1.3,MacIntel,60,,,,,,,0,media/djnb.png,2,Symb,h,RT,0,0,13,0,1,5,1.8,3,h,1,0.664585,13,0,13,0,1,,,,,
,,,,,,,,,,,,,,,2,3,2020-12-09_14h23.30.605,Context_Learning_Pilot,2020.1.3,MacIntel,60,,,,,,,1,media/dnnb.png,2,Symb,l,RT,0,0,14,0,1,5,1.8,3,l,1,0.704565,14,0,14,0,1,,,,,
,,,,,,,,,,,,,,,2,3,2020-12-09_14h23.30.605,Context_Learning_Pilot,2020.1.3,MacIntel,60,,,,,,,1,media/dnnb.png,1,Symb,i,RT,0,0,15,0,1,5,1.8,3,i,1,0.686505,15,0,15,0,1,,,,,
,,,,,,,,,,,,,,,2,3,2020-12-09_14h23.30.605,Context_Learning_Pilot,2020.1.3,MacIntel,60,,,,,,,1,media/dnnb.png,1,Symb,i,RT,0,0,16,0,1,5,1.8,3,i,1,0.53897,16,0,16,0,1,,,,,
,,,,,,,,,,,,,,,2,3,2020-12-09_14h23.30.605,Context_Learning_Pilot,2020.1.3,MacIntel,60,,,,,,,2,media/dinb.png,1,Symb,h,RT,0,0,17,0,1,5,1.8,3,h,1,0.937655,17,0,17,0,1,,,,,
,,,,,,,,,,,,,,,2,3,2020-12-09_14h23.30.605,Context_Learning_Pilot,2020.1.3,MacIntel,60,,,,,,,3,media/ddnb.png,1,Symb,l,RT,0,0,18,0,1,5,1.8,3,l,1,1.5068,18,0,18,0,1,,,,,
,,,,,,,,,,,,,,,2,3,2020-12-09_14h23.30.605,Context_Learning_Pilot,2020.1.3,MacIntel,60,,,,,,,0,media/djnb.png,1,Symb,u,RT,0,0,19,0,1,5,1.8,3,u,1,1.27999,19,0,19,0,1,,,,,
,,,,,,,,,,,,,,,2,3,2020-12-09_14h23.30.605,Context_Learning_Pilot,2020.1.3,MacIntel,60,,,,,,,2,media/dinb.png,2,Symb,u,RT,0,0,20,0,1,5,1.8,3,u,1,1.2936,20,0,20,0,1,,,,,
,,,,,,,,,,,,,,,2,3,2020-12-09_14h23.30.605,Context_Learning_Pilot,2020.1.3,MacIntel,60,,,,,,,0,media/djnb.png,2,Symb,h,RT,0,0,21,0,1,5,1.8,3,h,1,0.79546,21,0,21,0,1,,,,,
,,,,,,,,,,,,,,,2,3,2020-12-09_14h23.30.605,Context_Learning_Pilot,2020.1.3,MacIntel,60,,,,,,,3,media/ddnb.png,2,Symb,i,RT,0,0,22,0,1,5,1.8,3,i,1,1.761525,22,0,22,0,1,,,,,
,,,,,,,,,,,,,,,2,3,2020-12-09_14h23.30.605,Context_Learning_Pilot,2020.1.3,MacIntel,60,,,,,,,0,media/djnb.png,1,Symb,u,RT,0,0,23,0,1,5,1.8,3,u,1,0.811625,23,0,23,0,1,,,,,
,,,,,,,,,,,,,,,2,3,2020-12-09_14h23.30.605,Context_Learning_Pilot,2020.1.3,MacIntel,60,,,,,,,3,media/ddnb.png,2,Symb,i,RT,0,0,24,0,1,5,1.8,3,i,1,0.69794,24,0,24,0,1,,,,,
,,,,,,,,,,,,,,,2,3,2020-12-09_14h23.30.605,Context_Learning_Pilot,2020.1.3,MacIntel,60,,,,,,,2,media/dinb.png,1,Symb,h,RT,0,0,25,0,1,5,1.8,3,h,1,0.76286,25,0,25,0,1,,,,,
,,,,,,,,,,,,,,,2,3,2020-12-09_14h23.30.605,Context_Learning_Pilot,2020.1.3,MacIntel,60,,,,,,,1,media/dnnb.png,2,Symb,l,RT,0,0,26,0,1,5,1.8,3,l,1,0.65253,26,0,26,0,1,,,,,
,,,,,,,,,,,,,,,2,3,2020-12-09_14h23.30.605,Context_Learning_Pilot,2020.1.3,MacIntel,60,,,,,,,1,media/dnnb.png,2,Symb,l,RT,0,0,27,0,1,5,1.8,3,l,1,0.51748,27,0,27,0,1,,,,,
,,,,,,,,,,,,,,,2,3,2020-12-09_14h23.30.605,Context_Learning_Pilot,2020.1.3,MacIntel,60,,,,,,,1,media/dnnb.png,1,Symb,i,RT,0,0,28,0,1,5,1.8,3,i,1,0.76117,28,0,28,0,1,,,,,
,,,,,,,,,,,,,,,2,3,2020-12-09_14h23.30.605,Context_Learning_Pilot,2020.1.3,MacIntel,60,,,,,,,2,media/dinb.png,2,Symb,u,RT,0,0,29,0,1,5,1.8,3,u,1,1.28062,29,0,29,0,1,,,,,
,,,,,,,,,,,,,,,2,3,2020-12-09_14h23.30.605,Context_Learning_Pilot,2020.1.3,MacIntel,60,,,,,,,0,media/djnb.png,2,Symb,h,RT,0,0,30,0,1,5,1.8,3,h,1,0.666035,30,0,30,0,1,,,,,
,,,,,,,,,,,,,,,2,3,2020-12-09_14h23.30.605,Context_Learning_Pilot,2020.1.3,MacIntel,60,,,,,,,3,media/ddnb.png,1,Symb,l,RT,0,0,31,0,1,5,1.8,3,l,1,1.011585,31,0,31,0,1,,,,,
,,,,,,,,,,,,,,,2,3,2020-12-09_14h23.30.605,Context_Learning_Pilot,2020.1.3,MacIntel,60,,,,,,,1,media/dnnb.png,1,Symb,i,RT,0,0,32,0,1,5,1.8,3,i,1,1.1449,32,0,32,0,1,,,,,
,,,,,,,,,,,,,,,2,3,2020-12-09_14h23.30.605,Context_Learning_Pilot,2020.1.3,MacIntel,60,,,,,,,0,media/djnb.png,1,Symb,u,RT,0,0,33,0,1,5,1.8,3,u,1,0.91694,33,0,33,0,1,,,,,
,,,,,,,,,,,,,,,2,3,2020-12-09_14h23.30.605,Context_Learning_Pilot,2020.1.3,MacIntel,60,,,,,,,2,media/dinb.png,2,Symb,u,RT,0,0,34,0,1,5,1.8,3,i,0,1.118475,34,0,34,0,1,,,,,
,,,,,,,,,,,,,,,2,3,2020-12-09_14h23.30.605,Context_Learning_Pilot,2020.1.3,MacIntel,60,,,,,,,3,media/ddnb.png,1,Symb,l,RT,0,0,35,0,1,5,1.8,3,l,1,1.49873,35,0,35,0,1,,,,,
,,,,,,,,,,,,,,,2,3,2020-12-09_14h23.30.605,Context_Learning_Pilot,2020.1.3,MacIntel,60,,,,,,,0,media/djnb.png,2,Symb,h,RT,0,0,36,0,1,5,1.8,3,h,1,0.59312,36,0,36,0,1,,,,,
,,,,,,,,,,,,,,,2,3,2020-12-09_14h23.30.605,Context_Learning_Pilot,2020.1.3,MacIntel,60,,,,,,,3,media/ddnb.png,2,Symb,i,RT,0,0,37,0,1,5,1.8,3,u,0,0.729745,37,0,37,0,1,,,,,
,,,,,,,,,,,,,,,2,3,2020-12-09_14h23.30.605,Context_Learning_Pilot,2020.1.3,MacIntel,60,,,,,,,1,media/dnnb.png,1,Symb,i,RT,0,0,38,0,1,5,1.8,3,i,1,0.77725,38,0,38,0,1,,,,,
,,,,,,,,,,,,,,,2,3,2020-12-09_14h23.30.605,Context_Learning_Pilot,2020.1.3,MacIntel,60,,,,,,,0,media/djnb.png,1,Symb,u,RT,0,0,39,0,1,5,1.8,3,u,1,0.72127,39,0,39,0,1,,,,,
,,,,,,,,,,,,,,,2,3,2020-12-09_14h23.30.605,Context_Learning_Pilot,2020.1.3,MacIntel,60,,,,,,,3,media/ddnb.png,1,Symb,l,RT,0,0,40,0,1,5,1.8,3,l,1,1.25455,40,0,40,0,1,,,,,
,,,,,,,,,,,,,,,2,3,2020-12-09_14h23.30.605,Context_Learning_Pilot,2020.1.3,MacIntel,60,,,,,,,3,media/ddnb.png,2,Symb,i,RT,0,0,41,0,1,5,1.8,3,i,1,0.677725,41,0,41,0,1,,,,,
,,,,,,,,,,,,,,,2,3,2020-12-09_14h23.30.605,Context_Learning_Pilot,2020.1.3,MacIntel,60,,,,,,,1,media/dnnb.png,2,Symb,l,RT,0,0,42,0,1,5,1.8,3,l,1,0.7025,42,0,42,0,1,,,,,
,,,,,,,,,,,,,,,2,3,2020-12-09_14h23.30.605,Context_Learning_Pilot,2020.1.3,MacIntel,60,,,,,,,2,media/dinb.png,1,Symb,h,RT,0,0,43,0,1,5,1.8,3,h,1,0.85891,43,0,43,0,1,,,,,
,,,,,,,,,,,,,,,2,3,2020-12-09_14h23.30.605,Context_Learning_Pilot,2020.1.3,MacIntel,60,,,,,,,0,media/djnb.png,2,Symb,h,RT,0,0,44,0,1,5,1.8,3,h,1,0.67459,44,0,44,0,1,,,,,
,,,,,,,,,,,,,,,2,3,2020-12-09_14h23.30.605,Context_Learning_Pilot,2020.1.3,MacIntel,60,,,,,,,2,media/dinb.png,1,Symb,h,RT,0,0,45,0,1,5,1.8,3,h,1,1.037515,45,0,45,0,1,,,,,
,,,,,,,,,,,,,,,2,3,2020-12-09_14h23.30.605,Context_Learning_Pilot,2020.1.3,MacIntel,60,,,,,,,2,media/dinb.png,2,Symb,u,RT,0,0,46,0,1,5,1.8,3,h,0,0.57251,46,0,46,0,1,,,,,
,,,,,,,,,,,,,,,2,3,2020-12-09_14h23.30.605,Context_Learning_Pilot,2020.1.3,MacIntel,60,,,,,,,1,media/dnnb.png,2,Symb,l,RT,0,0,47,0,1,5,1.8,3,l,1,0.727535,47,0,47,0,1,,,,,
,,,,,,,,,,,,,,,2,3,2020-12-09_14h23.30.605,Context_Learning_Pilot,2020.1.3,MacIntel,60,,,,,,,3,media/ddnb.png,2,Symb,i,RT,0,0,48,0,1,5,1.8,3,i,1,1.50442,48,0,48,0,1,,,,,
,,,,,,,,,,,,,,,2,3,2020-12-09_14h23.30.605,Context_Learning_Pilot,2020.1.3,MacIntel,60,,,,,,,1,media/dnnb.png,2,Symb,l,RT,0,0,49,0,1,5,1.8,3,l,1,0.681375,49,0,49,0,1,,,,,
,,,,,,,,,,,,,,,2,3,2020-12-09_14h23.30.605,Context_Learning_Pilot,2020.1.3,MacIntel,60,,,,,,,2,media/dinb.png,2,Symb,u,RT,0,0,50,0,1,5,1.8,3,u,1,0.811565,50,0,50,0,1,,,,,
,,,,,,,,,,,,,,,2,3,2020-12-09_14h23.30.605,Context_Learning_Pilot,2020.1.3,MacIntel,60,,,,,,,0,media/djnb.png,1,Symb,u,RT,0,0,51,0,1,5,1.8,3,u,1,1.23038,51,0,51,0,1,,,,,
,,,,,,,,,,,,,,,2,3,2020-12-09_14h23.30.605,Context_Learning_Pilot,2020.1.3,MacIntel,60,,,,,,,2,media/dinb.png,1,Symb,h,RT,0,0,52,0,1,5,1.8,3,h,1,1.8568,52,0,52,0,1,,,,,
,,,,,,,,,,,,,,,2,3,2020-12-09_14h23.30.605,Context_Learning_Pilot,2020.1.3,MacIntel,60,,,,,,,1,media/dnnb.png,2,Symb,l,RT,0,0,53,0,1,5,1.8,3,l,1,2.267625,53,0,53,0,1,,,,,
,,,,,,,,,,,,,,,2,3,2020-12-09_14h23.30.605,Context_Learning_Pilot,2020.1.3,MacIntel,60,,,,,,,3,media/ddnb.png,1,Symb,l,RT,0,0,54,0,1,5,1.8,3,l,1,1.2267,54,0,54,0,1,,,,,
,,,,,,,,,,,,,,,2,3,2020-12-09_14h23.30.605,Context_Learning_Pilot,2020.1.3,MacIntel,60,,,,,,,2,media/dinb.png,1,Symb,h,RT,0,0,55,0,1,5,1.8,3,h,1,0.71712,55,0,55,0,1,,,,,
,,,,,,,,,,,,,,,2,3,2020-12-09_14h23.30.605,Context_Learning_Pilot,2020.1.3,MacIntel,60,,,,,,,0,media/djnb.png,2,Symb,h,RT,0,0,56,0,1,5,1.8,3,h,1,0.68356,56,0,56,0,1,,,,,
,,,,,,,,,,,,,,,2,3,2020-12-09_14h23.30.605,Context_Learning_Pilot,2020.1.3,MacIntel,60,,,,,,,1,media/dnnb.png,1,Symb,i,RT,0,0,57,0,1,5,1.8,3,i,1,1.43435,57,0,57,0,1,,,,,
,,,,,,,,,,,,,,,2,3,2020-12-09_14h23.30.605,Context_Learning_Pilot,2020.1.3,MacIntel,60,,,,,,,3,media/ddnb.png,2,Symb,i,RT,0,0,58,0,1,5,1.8,3,i,1,1.515575,58,0,58,0,1,,,,,
,,,,,,,,,,,,,,,2,3,2020-12-09_14h23.30.605,Context_Learning_Pilot,2020.1.3,MacIntel,60,,,,,,,3,media/ddnb.png,1,Symb,l,RT,0,0,59,0,1,5,1.8,3,l,1,0.77562,59,0,59,0,1,,,,,
,,,,,,,,,,,,,,,2,3,2020-12-09_14h23.30.605,Context_Learning_Pilot,2020.1.3,MacIntel,60,,,,,,,0,media/djnb.png,2,Symb,h,RT,0,0,60,0,1,5,1.8,3,h,1,0.750035,60,0,60,0,1,,,,,
,,,,,,,,,,,,,,,2,3,2020-12-09_14h23.30.605,Context_Learning_Pilot,2020.1.3,MacIntel,60,,,,,,,1,media/dnnb.png,1,Symb,i,RT,0,0,61,0,1,5,1.8,3,i,1,0.80543,61,0,61,0,1,,,,,
,,,,,,,,,,,,,,,2,3,2020-12-09_14h23.30.605,Context_Learning_Pilot,2020.1.3,MacIntel,60,,,,,,,0,media/djnb.png,1,Symb,u,RT,0,0,62,0,1,5,1.8,3,u,1,0.730025,62,0,62,0,1,,,,,
,,,,,,,,,,,,,,,2,3,2020-12-09_14h23.30.605,Context_Learning_Pilot,2020.1.3,MacIntel,60,,,,,,,2,media/dinb.png,2,Symb,u,RT,0,0,63,0,1,5,1.8,3,h,0,1.09947,63,0,63,0,1,,,,,
,,,,,,,,,,,,,,,2,3,2020-12-09_14h23.30.605,Context_Learning_Pilot,2020.1.3,MacIntel,60,,,,,,,3,media/ddnb.png,1,Symb,l,RT,0,0,64,0,1,5,1.8,3,l,1,0.8203,64,0,64,0,1,,,,,
,,,,,,,,,,,,,,,2,3,2020-12-09_14h23.30.605,Context_Learning_Pilot,2020.1.3,MacIntel,60,,,,,,,2,media/dinb.png,1,Symb,h,RT,0,0,65,0,1,5,1.8,3,h,1,0.75104,65,0,65,0,1,,,,,
,,,,,,,,,,,,,,,2,3,2020-12-09_14h23.30.605,Context_Learning_Pilot,2020.1.3,MacIntel,60,,,,,,,1,media/dnnb.png,2,Symb,l,RT,0,0,66,0,1,5,1.8,3,l,1,0.714475,66,0,66,0,1,,,,,
,,,,,,,,,,,,,,,2,3,2020-12-09_14h23.30.605,Context_Learning_Pilot,2020.1.3,MacIntel,60,,,,,,,1,media/dnnb.png,1,Symb,i,RT,0,0,67,0,1,5,1.8,3,i,1,0.718905,67,0,67,0,1,,,,,
,,,,,,,,,,,,,,,2,3,2020-12-09_14h23.30.605,Context_Learning_Pilot,2020.1.3,MacIntel,60,,,,,,,0,media/djnb.png,1,Symb,u,RT,0,0,68,0,1,5,1.8,3,u,1,0.790185,68,0,68,0,1,,,,,
,,,,,,,,,,,,,,,2,3,2020-12-09_14h23.30.605,Context_Learning_Pilot,2020.1.3,MacIntel,60,,,,,,,3,media/ddnb.png,1,Symb,l,RT,0,0,69,0,1,5,1.8,3,l,1,0.920025,69,0,69,0,1,,,,,
,,,,,,,,,,,,,,,2,3,2020-12-09_14h23.30.605,Context_Learning_Pilot,2020.1.3,MacIntel,60,,,,,,,2,media/dinb.png,1,Symb,h,RT,0,0,70,0,1,5,1.8,3,h,1,0.94983,70,0,70,0,1,,,,,
,,,,,,,,,,,,,,,2,3,2020-12-09_14h23.30.605,Context_Learning_Pilot,2020.1.3,MacIntel,60,,,,,,,1,media/dnnb.png,1,Symb,i,RT,0,0,71,0,1,5,1.8,3,i,1,0.76351,71,0,71,0,1,,,,,
,,,,,,,,,,,,,,,2,3,2020-12-09_14h23.30.605,Context_Learning_Pilot,2020.1.3,MacIntel,60,,,,,,,3,media/ddnb.png,2,Symb,i,RT,0,0,72,0,1,5,1.8,3,i,1,1.81357,72,0,72,0,1,,,,,
,,,,,,,,,,,,,,,2,3,2020-12-09_14h23.30.605,Context_Learning_Pilot,2020.1.3,MacIntel,60,,,,,,,0,media/djnb.png,2,Symb,h,RT,0,0,73,0,1,5,1.8,3,h,1,0.76197,73,0,73,0,1,,,,,
,,,,,,,,,,,,,,,2,3,2020-12-09_14h23.30.605,Context_Learning_Pilot,2020.1.3,MacIntel,60,,,,,,,2,media/dinb.png,2,Symb,u,RT,0,0,74,0,1,5,1.8,3,u,1,1.12668,74,0,74,0,1,,,,,
,,,,,,,,,,,,,,,2,3,2020-12-09_14h23.30.605,Context_Learning_Pilot,2020.1.3,MacIntel,60,,,,,,,3,media/ddnb.png,2,Symb,i,RT,0,0,75,0,1,5,1.8,3,i,1,1.830665,75,0,75,0,1,,,,,
,,,,,,,,,,,,,,,2,3,2020-12-09_14h23.30.605,Context_Learning_Pilot,2020.1.3,MacIntel,60,,,,,,,0,media/djnb.png,1,Symb,u,RT,0,0,76,0,1,5,1.8,3,u,1,3.656615,76,0,76,0,1,,,,,
,,,,,,,,,,,,,,,2,3,2020-12-09_14h23.30.605,Context_Learning_Pilot,2020.1.3,MacIntel,60,,,,,,,1,media/dnnb.png,2,Symb,l,RT,0,0,77,0,1,5,1.8,3,l,1,0.629385,77,0,77,0,1,,,,,
,,,,,,,,,,,,,,,2,3,2020-12-09_14h23.30.605,Context_Learning_Pilot,2020.1.3,MacIntel,60,,,,,,,2,media/dinb.png,2,Symb,u,RT,0,0,78,0,1,5,1.8,3,u,1,0.819645,78,0,78,0,1,,,,,
,,,,,,,,,,,,,,,2,3,2020-12-09_14h23.30.605,Context_Learning_Pilot,2020.1.3,MacIntel,60,,,,,,,0,media/djnb.png,2,Symb,h,RT,0,0,79,0,1,5,1.8,3,h,1,0.680405,79,0,79,0,1,,,,,
,,,,,,,,,,,,,,,2,3,2020-12-09_14h23.30.605,Context_Learning_Pilot,2020.1.3,MacIntel,60,,,,,,,2,media/dinb.png,1,Symb,h,RT,0,0,80,0,1,5,1.8,3,h,1,0.900205,80,0,80,0,1,,,,,
,,,,,,,,,,,,,,,2,3,2020-12-09_14h23.30.605,Context_Learning_Pilot,2020.1.3,MacIntel,60,,,,,,,0,media/djnb.png,2,Symb,h,RT,0,0,81,0,1,5,1.8,3,u,0,0.87399,81,0,81,0,1,,,,,
,,,,,,,,,,,,,,,2,3,2020-12-09_14h23.30.605,Context_Learning_Pilot,2020.1.3,MacIntel,60,,,,,,,1,media/dnnb.png,2,Symb,l,RT,0,0,82,0,1,5,1.8,3,l,1,0.61797,82,0,82,0,1,,,,,
,,,,,,,,,,,,,,,2,3,2020-12-09_14h23.30.605,Context_Learning_Pilot,2020.1.3,MacIntel,60,,,,,,,2,media/dinb.png,2,Symb,u,RT,0,0,83,0,1,5,1.8,3,h,0,0.682335,83,0,83,0,1,,,,,
,,,,,,,,,,,,,,,2,3,2020-12-09_14h23.30.605,Context_Learning_Pilot,2020.1.3,MacIntel,60,,,,,,,1,media/dnnb.png,1,Symb,i,RT,0,0,84,0,1,5,1.8,3,i,1,1.097255,84,0,84,0,1,,,,,
,,,,,,,,,,,,,,,2,3,2020-12-09_14h23.30.605,Context_Learning_Pilot,2020.1.3,MacIntel,60,,,,,,,0,media/djnb.png,1,Symb,u,RT,0,0,85,0,1,5,1.8,3,u,1,0.776855,85,0,85,0,1,,,,,
,,,,,,,,,,,,,,,2,3,2020-12-09_14h23.30.605,Context_Learning_Pilot,2020.1.3,MacIntel,60,,,,,,,1,media/dnnb.png,1,Symb,i,RT,0,0,86,0,1,5,1.8,3,i,1,0.8224,86,0,86,0,1,,,,,
,,,,,,,,,,,,,,,2,3,2020-12-09_14h23.30.605,Context_Learning_Pilot,2020.1.3,MacIntel,60,,,,,,,0,media/djnb.png,1,Symb,u,RT,0,0,87,0,1,5,1.8,3,u,1,1.05594,87,0,87,0,1,,,,,
,,,,,,,,,,,,,,,2,3,2020-12-09_14h23.30.605,Context_Learning_Pilot,2020.1.3,MacIntel,60,,,,,,,3,media/ddnb.png,2,Symb,i,RT,0,0,88,0,1,5,1.8,3,i,1,0.977065,88,0,88,0,1,,,,,
,,,,,,,,,,,,,,,2,3,2020-12-09_14h23.30.605,Context_Learning_Pilot,2020.1.3,MacIntel,60,,,,,,,3,media/ddnb.png,1,Symb,l,RT,0,0,89,0,1,5,1.8,3,l,1,1.03696,89,0,89,0,1,,,,,
,,,,,,,,,,,,,,,2,3,2020-12-09_14h23.30.605,Context_Learning_Pilot,2020.1.3,MacIntel,60,,,,,,,3,media/ddnb.png,2,Symb,i,RT,0,0,90,0,1,5,1.8,3,i,1,0.693225,90,0,90,0,1,,,,,
,,,,,,,,,,,,,,,2,3,2020-12-09_14h23.30.605,Context_Learning_Pilot,2020.1.3,MacIntel,60,,,,,,,1,media/dnnb.png,2,Symb,l,RT,0,0,91,0,1,5,1.8,3,l,1,0.649595,91,0,91,0,1,,,,,
,,,,,,,,,,,,,,,2,3,2020-12-09_14h23.30.605,Context_Learning_Pilot,2020.1.3,MacIntel,60,,,,,,,2,media/dinb.png,1,Symb,h,RT,0,0,92,0,1,5,1.8,3,u,0,0.80267,92,0,92,0,1,,,,,
,,,,,,,,,,,,,,,2,3,2020-12-09_14h23.30.605,Context_Learning_Pilot,2020.1.3,MacIntel,60,,,,,,,2,media/dinb.png,2,Symb,u,RT,0,0,93,0,1,5,1.8,3,u,1,3.164975,93,0,93,0,1,,,,,
,,,,,,,,,,,,,,,2,3,2020-12-09_14h23.30.605,Context_Learning_Pilot,2020.1.3,MacIntel,60,,,,,,,3,media/ddnb.png,1,Symb,l,RT,0,0,94,0,1,5,1.8,3,l,1,0.962855,94,0,94,0,1,,,,,
,,,,,,,,,,,,,,,2,3,2020-12-09_14h23.30.605,Context_Learning_Pilot,2020.1.3,MacIntel,60,,,,,,,0,media/djnb.png,2,Symb,h,RT,0,0,95,0,1,5,1.8,3,h,1,1.152285,95,0,95,0,1,,,,,
,,,,,,,,,,,,,,,2,3,2020-12-09_14h23.30.605,Context_Learning_Pilot,2020.1.3,MacIntel,60,,,,,,,,,,,,,,,,,,,,,,,,,,,,,4,0,4,0,1
,,,,,,,,,,,,,,,2,3,2020-12-09_14h23.30.605,Context_Learning_Pilot,2020.1.3,MacIntel,60,,,,,h,2.989525,2,media/dinb.png,2,Symb,u,RT,0,0,0,0,1,6,1.8,3,h,0,1.06505,0,0,0,0,1,,,,,
,,,,,,,,,,,,,,,2,3,2020-12-09_14h23.30.605,Context_Learning_Pilot,2020.1.3,MacIntel,60,,,,,,,3,media/ddnb.png,2,Symb,i,RT,0,0,1,0,1,6,1.8,3,i,1,1.02604,1,0,1,0,1,,,,,
,,,,,,,,,,,,,,,2,3,2020-12-09_14h23.30.605,Context_Learning_Pilot,2020.1.3,MacIntel,60,,,,,,,2,media/dinb.png,1,Symb,h,RT,0,0,2,0,1,6,1.8,3,h,1,0.8363,2,0,2,0,1,,,,,
,,,,,,,,,,,,,,,2,3,2020-12-09_14h23.30.605,Context_Learning_Pilot,2020.1.3,MacIntel,60,,,,,,,3,media/ddnb.png,1,Symb,l,RT,0,0,3,0,1,6,1.8,3,l,1,0.7693,3,0,3,0,1,,,,,
,,,,,,,,,,,,,,,2,3,2020-12-09_14h23.30.605,Context_Learning_Pilot,2020.1.3,MacIntel,60,,,,,,,2,media/dinb.png,2,Symb,u,RT,0,0,4,0,1,6,1.8,3,u,1,1.147425,4,0,4,0,1,,,,,
,,,,,,,,,,,,,,,2,3,2020-12-09_14h23.30.605,Context_Learning_Pilot,2020.1.3,MacIntel,60,,,,,,,1,media/dnnb.png,1,Symb,i,RT,0,0,5,0,1,6,1.8,3,i,1,0.70648,5,0,5,0,1,,,,,
,,,,,,,,,,,,,,,2,3,2020-12-09_14h23.30.605,Context_Learning_Pilot,2020.1.3,MacIntel,60,,,,,,,0,media/djnb.png,1,Symb,u,RT,0,0,6,0,1,6,1.8,3,u,1,0.678695,6,0,6,0,1,,,,,
,,,,,,,,,,,,,,,2,3,2020-12-09_14h23.30.605,Context_Learning_Pilot,2020.1.3,MacIntel,60,,,,,,,0,media/djnb.png,2,Symb,h,RT,0,0,7,0,1,6,1.8,3,h,1,0.65131,7,0,7,0,1,,,,,
,,,,,,,,,,,,,,,2,3,2020-12-09_14h23.30.605,Context_Learning_Pilot,2020.1.3,MacIntel,60,,,,,,,0,media/djnb.png,2,Symb,h,RT,0,0,8,0,1,6,1.8,3,h,1,0.56786,8,0,8,0,1,,,,,
,,,,,,,,,,,,,,,2,3,2020-12-09_14h23.30.605,Context_Learning_Pilot,2020.1.3,MacIntel,60,,,,,,,1,media/dnnb.png,1,Symb,i,RT,0,0,9,0,1,6,1.8,3,i,1,0.95752,9,0,9,0,1,,,,,
,,,,,,,,,,,,,,,2,3,2020-12-09_14h23.30.605,Context_Learning_Pilot,2020.1.3,MacIntel,60,,,,,,,1,media/dnnb.png,2,Symb,l,RT,0,0,10,0,1,6,1.8,3,l,1,0.577345,10,0,10,0,1,,,,,
,,,,,,,,,,,,,,,2,3,2020-12-09_14h23.30.605,Context_Learning_Pilot,2020.1.3,MacIntel,60,,,,,,,3,media/ddnb.png,1,Symb,l,RT,0,0,11,0,1,6,1.8,3,l,1,1.3387,11,0,11,0,1,,,,,
,,,,,,,,,,,,,,,2,3,2020-12-09_14h23.30.605,Context_Learning_Pilot,2020.1.3,MacIntel,60,,,,,,,0,media/djnb.png,1,Symb,u,RT,0,0,12,0,1,6,1.8,3,u,1,0.71591,12,0,12,0,1,,,,,
,,,,,,,,,,,,,,,2,3,2020-12-09_14h23.30.605,Context_Learning_Pilot,2020.1.3,MacIntel,60,,,,,,,3,media/ddnb.png,2,Symb,i,RT,0,0,13,0,1,6,1.8,3,i,1,0.67989,13,0,13,0,1,,,,,
,,,,,,,,,,,,,,,2,3,2020-12-09_14h23.30.605,Context_Learning_Pilot,2020.1.3,MacIntel,60,,,,,,,1,media/dnnb.png,2,Symb,l,RT,0,0,14,0,1,6,1.8,3,l,1,0.633815,14,0,14,0,1,,,,,
,,,,,,,,,,,,,,,2,3,2020-12-09_14h23.30.605,Context_Learning_Pilot,2020.1.3,MacIntel,60,,,,,,,2,media/dinb.png,1,Symb,h,RT,0,0,15,0,1,6,1.8,3,h,1,0.951035,15,0,15,0,1,,,,,
,,,,,,,,,,,,,,,2,3,2020-12-09_14h23.30.605,Context_Learning_Pilot,2020.1.3,MacIntel,60,,,,,,,1,media/dnnb.png,2,Symb,l,RT,0,0,16,0,1,6,1.8,3,l,1,0.786805,16,0,16,0,1,,,,,
,,,,,,,,,,,,,,,2,3,2020-12-09_14h23.30.605,Context_Learning_Pilot,2020.1.3,MacIntel,60,,,,,,,3,media/ddnb.png,2,Symb,i,RT,0,0,17,0,1,6,1.8,3,i,1,0.67246,17,0,17,0,1,,,,,
,,,,,,,,,,,,,,,2,3,2020-12-09_14h23.30.605,Context_Learning_Pilot,2020.1.3,MacIntel,60,,,,,,,0,media/djnb.png,1,Symb,u,RT,0,0,18,0,1,6,1.8,3,u,1,0.81745,18,0,18,0,1,,,,,
,,,,,,,,,,,,,,,2,3,2020-12-09_14h23.30.605,Context_Learning_Pilot,2020.1.3,MacIntel,60,,,,,,,1,media/dnnb.png,1,Symb,i,RT,0,0,19,0,1,6,1.8,3,i,1,1.060825,19,0,19,0,1,,,,,
,,,,,,,,,,,,,,,2,3,2020-12-09_14h23.30.605,Context_Learning_Pilot,2020.1.3,MacIntel,60,,,,,,,1,media/dnnb.png,2,Symb,l,RT,0,0,20,0,1,6,1.8,3,l,1,0.746055,20,0,20,0,1,,,,,
,,,,,,,,,,,,,,,2,3,2020-12-09_14h23.30.605,Context_Learning_Pilot,2020.1.3,MacIntel,60,,,,,,,1,media/dnnb.png,1,Symb,i,RT,0,0,21,0,1,6,1.8,3,i,1,0.94658,21,0,21,0,1,,,,,
,,,,,,,,,,,,,,,2,3,2020-12-09_14h23.30.605,Context_Learning_Pilot,2020.1.3,MacIntel,60,,,,,,,3,media/ddnb.png,1,Symb,l,RT,0,0,22,0,1,6,1.8,3,l,1,1.106015,22,0,22,0,1,,,,,
,,,,,,,,,,,,,,,2,3,2020-12-09_14h23.30.605,Context_Learning_Pilot,2020.1.3,MacIntel,60,,,,,,,0,media/djnb.png,2,Symb,h,RT,0,0,23,0,1,6,1.8,3,h,1,1.923865,23,0,23,0,1,,,,,
,,,,,,,,,,,,,,,2,3,2020-12-09_14h23.30.605,Context_Learning_Pilot,2020.1.3,MacIntel,60,,,,,,,0,media/djnb.png,2,Symb,h,RT,0,0,24,0,1,6,1.8,3,h,1,0.50487,24,0,24,0,1,,,,,
,,,,,,,,,,,,,,,2,3,2020-12-09_14h23.30.605,Context_Learning_Pilot,2020.1.3,MacIntel,60,,,,,,,2,media/dinb.png,1,Symb,h,RT,0,0,25,0,1,6,1.8,3,u,0,0.7295,25,0,25,0,1,,,,,
,,,,,,,,,,,,,,,2,3,2020-12-09_14h23.30.605,Context_Learning_Pilot,2020.1.3,MacIntel,60,,,,,,,3,media/ddnb.png,2,Symb,i,RT,0,0,26,0,1,6,1.8,3,i,1,1.026025,26,0,26,0,1,,,,,
,,,,,,,,,,,,,,,2,3,2020-12-09_14h23.30.605,Context_Learning_Pilot,2020.1.3,MacIntel,60,,,,,,,2,media/dinb.png,1,Symb,h,RT,0,0,27,0,1,6,1.8,3,h,1,0.61563,27,0,27,0,1,,,,,
,,,,,,,,,,,,,,,2,3,2020-12-09_14h23.30.605,Context_Learning_Pilot,2020.1.3,MacIntel,60,,,,,,,3,media/ddnb.png,1,Symb,l,RT,0,0,28,0,1,6,1.8,3,l,1,1.24106,28,0,28,0,1,,,,,
,,,,,,,,,,,,,,,2,3,2020-12-09_14h23.30.605,Context_Learning_Pilot,2020.1.3,MacIntel,60,,,,,,,2,media/dinb.png,2,Symb,u,RT,0,0,29,0,1,6,1.8,3,h,0,1.17306,29,0,29,0,1,,,,,
,,,,,,,,,,,,,,,2,3,2020-12-09_14h23.30.605,Context_Learning_Pilot,2020.1.3,MacIntel,60,,,,,,,0,media/djnb.png,1,Symb,u,RT,0,0,30,0,1,6,1.8,3,u,1,0.896665,30,0,30,0,1,,,,,
,,,,,,,,,,,,,,,2,3,2020-12-09_14h23.30.605,Context_Learning_Pilot,2020.1.3,MacIntel,60,,,,,,,2,media/dinb.png,2,Symb,u,RT,0,0,31,0,1,6,1.8,3,u,1,1.30007,31,0,31,0,1,,,,,
,,,,,,,,,,,,,,,2,3,2020-12-09_14h23.30.605,Context_Learning_Pilot,2020.1.3,MacIntel,60,,,,,,,2,media/dinb.png,2,Symb,u,RT,0,0,32,0,1,6,1.8,3,u,1,0.761225,32,0,32,0,1,,,,,
,,,,,,,,,,,,,,,2,3,2020-12-09_14h23.30.605,Context_Learning_Pilot,2020.1.3,MacIntel,60,,,,,,,1,media/dnnb.png,1,Symb,i,RT,0,0,33,0,1,6,1.8,3,i,1,0.88836,33,0,33,0,1,,,,,
,,,,,,,,,,,,,,,2,3,2020-12-09_14h23.30.605,Context_Learning_Pilot,2020.1.3,MacIntel,60,,,,,,,3,media/ddnb.png,1,Symb,l,RT,0,0,34,0,1,6,1.8,3,l,1,1.124465,34,0,34,0,1,,,,,
,,,,,,,,,,,,,,,2,3,2020-12-09_14h23.30.605,Context_Learning_Pilot,2020.1.3,MacIntel,60,,,,,,,0,media/djnb.png,2,Symb,h,RT,0,0,35,0,1,6,1.8,3,h,1,0.964425,35,0,35,0,1,,,,,
,,,,,,,,,,,,,,,2,3,2020-12-09_14h23.30.605,Context_Learning_Pilot,2020.1.3,MacIntel,60,,,,,,,2,media/dinb.png,2,Symb,u,RT,0,0,36,0,1,6,1.8,3,u,1,0.744175,36,0,36,0,1,,,,,
,,,,,,,,,,,,,,,2,3,2020-12-09_14h23.30.605,Context_Learning_Pilot,2020.1.3,MacIntel,60,,,,,,,3,media/ddnb.png,2,Symb,i,RT,0,0,37,0,1,6,1.8,3,i,1,2.10393,37,0,37,0,1,,,,,
,,,,,,,,,,,,,,,2,3,2020-12-09_14h23.30.605,Context_Learning_Pilot,2020.1.3,MacIntel,60,,,,,,,2,media/dinb.png,1,Symb,h,RT,0,0,38,0,1,6,1.8,3,h,1,0.67961,38,0,38,0,1,,,,,
,,,,,,,,,,,,,,,2,3,2020-12-09_14h23.30.605,Context_Learning_Pilot,2020.1.3,MacIntel,60,,,,,,,2,media/dinb.png,1,Symb,h,RT,0,0,39,0,1,6,1.8,3,h,1,0.58049,39,0,39,0,1,,,,,
,,,,,,,,,,,,,,,2,3,2020-12-09_14h23.30.605,Context_Learning_Pilot,2020.1.3,MacIntel,60,,,,,,,3,media/ddnb.png,2,Symb,i,RT,0,0,40,0,1,6,1.8,3,i,1,1.74828,40,0,40,0,1,,,,,
,,,,,,,,,,,,,,,2,3,2020-12-09_14h23.30.605,Context_Learning_Pilot,2020.1.3,MacIntel,60,,,,,,,1,media/dnnb.png,2,Symb,l,RT,0,0,41,0,1,6,1.8,3,l,1,0.58268,41,0,41,0,1,,,,,
,,,,,,,,,,,,,,,2,3,2020-12-09_14h23.30.605,Context_Learning_Pilot,2020.1.3,MacIntel,60,,,,,,,0,media/djnb.png,1,Symb,u,RT,0,0,42,0,1,6,1.8,3,u,1,0.74001,42,0,42,0,1,,,,,
,,,,,,,,,,,,,,,2,3,2020-12-09_14h23.30.605,Context_Learning_Pilot,2020.1.3,MacIntel,60,,,,,,,3,media/ddnb.png,1,Symb,l,RT,0,0,43,0,1,6,1.8,3,l,1,1.06063,43,0,43,0,1,,,,,
,,,,,,,,,,,,,,,2,3,2020-12-09_14h23.30.605,Context_Learning_Pilot,2020.1.3,MacIntel,60,,,,,,,0,media/djnb.png,1,Symb,u,RT,0,0,44,0,1,6,1.8,3,u,1,0.954665,44,0,44,0,1,,,,,
,,,,,,,,,,,,,,,2,3,2020-12-09_14h23.30.605,Context_Learning_Pilot,2020.1.3,MacIntel,60,,,,,,,0,media/djnb.png,2,Symb,h,RT,0,0,45,0,1,6,1.8,3,h,1,0.800515,45,0,45,0,1,,,,,
,,,,,,,,,,,,,,,2,3,2020-12-09_14h23.30.605,Context_Learning_Pilot,2020.1.3,MacIntel,60,,,,,,,1,media/dnnb.png,2,Symb,l,RT,0,0,46,0,1,6,1.8,3,l,1,0.627455,46,0,46,0,1,,,,,
,,,,,,,,,,,,,,,2,3,2020-12-09_14h23.30.605,Context_Learning_Pilot,2020.1.3,MacIntel,60,,,,,,,1,media/dnnb.png,1,Symb,i,RT,0,0,47,0,1,6,1.8,3,i,1,0.676075,47,0,47,0,1,,,,,
,,,,,,,,,,,,,,,2,3,2020-12-09_14h23.30.605,Context_Learning_Pilot,2020.1.3,MacIntel,60,,,,,,,2,media/dinb.png,1,Symb,h,RT,0,0,48,0,1,6,1.8,3,h,1,1.06094,48,0,48,0,1,,,,,
,,,,,,,,,,,,,,,2,3,2020-12-09_14h23.30.605,Context_Learning_Pilot,2020.1.3,MacIntel,60,,,,,,,0,media/djnb.png,1,Symb,u,RT,0,0,49,0,1,6,1.8,3,u,1,0.78835,49,0,49,0,1,,,,,
,,,,,,,,,,,,,,,2,3,2020-12-09_14h23.30.605,Context_Learning_Pilot,2020.1.3,MacIntel,60,,,,,,,3,media/ddnb.png,1,Symb,l,RT,0,0,50,0,1,6,1.8,3,l,1,1.60378,50,0,50,0,1,,,,,
,,,,,,,,,,,,,,,2,3,2020-12-09_14h23.30.605,Context_Learning_Pilot,2020.1.3,MacIntel,60,,,,,,,2,media/dinb.png,2,Symb,u,RT,0,0,51,0,1,6,1.8,3,u,1,1.16111,51,0,51,0,1,,,,,
,,,,,,,,,,,,,,,2,3,2020-12-09_14h23.30.605,Context_Learning_Pilot,2020.1.3,MacIntel,60,,,,,,,0,media/djnb.png,1,Symb,u,RT,0,0,52,0,1,6,1.8,3,u,1,1.25958,52,0,52,0,1,,,,,
,,,,,,,,,,,,,,,2,3,2020-12-09_14h23.30.605,Context_Learning_Pilot,2020.1.3,MacIntel,60,,,,,,,2,media/dinb.png,1,Symb,h,RT,0,0,53,0,1,6,1.8,3,h,1,1.453105,53,0,53,0,1,,,,,
,,,,,,,,,,,,,,,2,3,2020-12-09_14h23.30.605,Context_Learning_Pilot,2020.1.3,MacIntel,60,,,,,,,1,media/dnnb.png,2,Symb,l,RT,0,0,54,0,1,6,1.8,3,l,1,0.930995,54,0,54,0,1,,,,,
,,,,,,,,,,,,,,,2,3,2020-12-09_14h23.30.605,Context_Learning_Pilot,2020.1.3,MacIntel,60,,,,,,,2,media/dinb.png,2,Symb,u,RT,0,0,55,0,1,6,1.8,3,u,1,0.958365,55,0,55,0,1,,,,,
,,,,,,,,,,,,,,,2,3,2020-12-09_14h23.30.605,Context_Learning_Pilot,2020.1.3,MacIntel,60,,,,,,,0,media/djnb.png,2,Symb,h,RT,0,0,56,0,1,6,1.8,3,h,1,0.72387,56,0,56,0,1,,,,,
,,,,,,,,,,,,,,,2,3,2020-12-09_14h23.30.605,Context_Learning_Pilot,2020.1.3,MacIntel,60,,,,,,,0,media/djnb.png,2,Symb,h,RT,0,0,57,0,1,6,1.8,3,h,1,1.249265,57,0,57,0,1,,,,,
,,,,,,,,,,,,,,,2,3,2020-12-09_14h23.30.605,Context_Learning_Pilot,2020.1.3,MacIntel,60,,,,,,,1,media/dnnb.png,1,Symb,i,RT,0,0,58,0,1,6,1.8,3,i,1,0.997635,58,0,58,0,1,,,,,
,,,,,,,,,,,,,,,2,3,2020-12-09_14h23.30.605,Context_Learning_Pilot,2020.1.3,MacIntel,60,,,,,,,3,media/ddnb.png,2,Symb,i,RT,0,0,59,0,1,6,1.8,3,i,1,0.90245,59,0,59,0,1,,,,,
,,,,,,,,,,,,,,,2,3,2020-12-09_14h23.30.605,Context_Learning_Pilot,2020.1.3,MacIntel,60,,,,,,,1,media/dnnb.png,2,Symb,l,RT,0,0,60,0,1,6,1.8,3,l,1,0.86922,60,0,60,0,1,,,,,
,,,,,,,,,,,,,,,2,3,2020-12-09_14h23.30.605,Context_Learning_Pilot,2020.1.3,MacIntel,60,,,,,,,3,media/ddnb.png,1,Symb,l,RT,0,0,61,0,1,6,1.8,3,l,1,0.88165,61,0,61,0,1,,,,,
,,,,,,,,,,,,,,,2,3,2020-12-09_14h23.30.605,Context_Learning_Pilot,2020.1.3,MacIntel,60,,,,,,,3,media/ddnb.png,2,Symb,i,RT,0,0,62,0,1,6,1.8,3,i,1,0.622125,62,0,62,0,1,,,,,
,,,,,,,,,,,,,,,2,3,2020-12-09_14h23.30.605,Context_Learning_Pilot,2020.1.3,MacIntel,60,,,,,,,1,media/dnnb.png,1,Symb,i,RT,0,0,63,0,1,6,1.8,3,i,1,0.73341,63,0,63,0,1,,,,,
,,,,,,,,,,,,,,,2,3,2020-12-09_14h23.30.605,Context_Learning_Pilot,2020.1.3,MacIntel,60,,,,,,,2,media/dinb.png,1,Symb,h,RT,0,0,64,0,1,6,1.8,3,h,1,0.635675,64,0,64,0,1,,,,,
,,,,,,,,,,,,,,,2,3,2020-12-09_14h23.30.605,Context_Learning_Pilot,2020.1.3,MacIntel,60,,,,,,,2,media/dinb.png,2,Symb,u,RT,0,0,65,0,1,6,1.8,3,h,0,0.503775,65,0,65,0,1,,,,,
,,,,,,,,,,,,,,,2,3,2020-12-09_14h23.30.605,Context_Learning_Pilot,2020.1.3,MacIntel,60,,,,,,,1,media/dnnb.png,1,Symb,i,RT,0,0,66,0,1,6,1.8,3,i,1,1.6291,66,0,66,0,1,,,,,
,,,,,,,,,,,,,,,2,3,2020-12-09_14h23.30.605,Context_Learning_Pilot,2020.1.3,MacIntel,60,,,,,,,1,media/dnnb.png,2,Symb,l,RT,0,0,67,0,1,6,1.8,3,l,1,0.69441,67,0,67,0,1,,,,,
,,,,,,,,,,,,,,,2,3,2020-12-09_14h23.30.605,Context_Learning_Pilot,2020.1.3,MacIntel,60,,,,,,,3,media/ddnb.png,1,Symb,l,RT,0,0,68,0,1,6,1.8,3,l,1,1.39905,68,0,68,0,1,,,,,
,,,,,,,,,,,,,,,2,3,2020-12-09_14h23.30.605,Context_Learning_Pilot,2020.1.3,MacIntel,60,,,,,,,3,media/ddnb.png,2,Symb,i,RT,0,0,69,0,1,6,1.8,3,i,1,0.68772,69,0,69,0,1,,,,,
,,,,,,,,,,,,,,,2,3,2020-12-09_14h23.30.605,Context_Learning_Pilot,2020.1.3,MacIntel,60,,,,,,,2,media/dinb.png,1,Symb,h,RT,0,0,70,0,1,6,1.8,3,h,1,0.936085,70,0,70,0,1,,,,,
,,,,,,,,,,,,,,,2,3,2020-12-09_14h23.30.605,Context_Learning_Pilot,2020.1.3,MacIntel,60,,,,,,,1,media/dnnb.png,2,Symb,l,RT,0,0,71,0,1,6,1.8,3,l,1,1.37517,71,0,71,0,1,,,,,
,,,,,,,,,,,,,,,2,3,2020-12-09_14h23.30.605,Context_Learning_Pilot,2020.1.3,MacIntel,60,,,,,,,2,media/dinb.png,2,Symb,u,RT,0,0,72,0,1,6,1.8,3,u,1,0.86908,72,0,72,0,1,,,,,
,,,,,,,,,,,,,,,2,3,2020-12-09_14h23.30.605,Context_Learning_Pilot,2020.1.3,MacIntel,60,,,,,,,0,media/djnb.png,1,Symb,u,RT,0,0,73,0,1,6,1.8,3,u,1,1.01629,73,0,73,0,1,,,,,
,,,,,,,,,,,,,,,2,3,2020-12-09_14h23.30.605,Context_Learning_Pilot,2020.1.3,MacIntel,60,,,,,,,0,media/djnb.png,1,Symb,u,RT,0,0,74,0,1,6,1.8,3,u,1,0.68063,74,0,74,0,1,,,,,
,,,,,,,,,,,,,,,2,3,2020-12-09_14h23.30.605,Context_Learning_Pilot,2020.1.3,MacIntel,60,,,,,,,0,media/djnb.png,2,Symb,h,RT,0,0,75,0,1,6,1.8,3,h,1,0.647445,75,0,75,0,1,,,,,
,,,,,,,,,,,,,,,2,3,2020-12-09_14h23.30.605,Context_Learning_Pilot,2020.1.3,MacIntel,60,,,,,,,3,media/ddnb.png,1,Symb,l,RT,0,0,76,0,1,6,1.8,3,l,1,0.96606,76,0,76,0,1,,,,,
,,,,,,,,,,,,,,,2,3,2020-12-09_14h23.30.605,Context_Learning_Pilot,2020.1.3,MacIntel,60,,,,,,,3,media/ddnb.png,2,Symb,i,RT,0,0,77,0,1,6,1.8,3,i,1,0.74631,77,0,77,0,1,,,,,
,,,,,,,,,,,,,,,2,3,2020-12-09_14h23.30.605,Context_Learning_Pilot,2020.1.3,MacIntel,60,,,,,,,1,media/dnnb.png,1,Symb,i,RT,0,0,78,0,1,6,1.8,3,i,1,0.9918,78,0,78,0,1,,,,,
,,,,,,,,,,,,,,,2,3,2020-12-09_14h23.30.605,Context_Learning_Pilot,2020.1.3,MacIntel,60,,,,,,,0,media/djnb.png,2,Symb,h,RT,0,0,79,0,1,6,1.8,3,h,1,0.662225,79,0,79,0,1,,,,,
,,,,,,,,,,,,,,,2,3,2020-12-09_14h23.30.605,Context_Learning_Pilot,2020.1.3,MacIntel,60,,,,,,,3,media/ddnb.png,2,Symb,i,RT,0,0,80,0,1,6,1.8,3,i,1,1.52593,80,0,80,0,1,,,,,
,,,,,,,,,,,,,,,2,3,2020-12-09_14h23.30.605,Context_Learning_Pilot,2020.1.3,MacIntel,60,,,,,,,2,media/dinb.png,2,Symb,u,RT,0,0,81,0,1,6,1.8,3,u,1,0.873555,81,0,81,0,1,,,,,
,,,,,,,,,,,,,,,2,3,2020-12-09_14h23.30.605,Context_Learning_Pilot,2020.1.3,MacIntel,60,,,,,,,1,media/dnnb.png,2,Symb,l,RT,0,0,82,0,1,6,1.8,3,l,1,0.77044,82,0,82,0,1,,,,,
,,,,,,,,,,,,,,,2,3,2020-12-09_14h23.30.605,Context_Learning_Pilot,2020.1.3,MacIntel,60,,,,,,,0,media/djnb.png,2,Symb,h,RT,0,0,83,0,1,6,1.8,3,h,1,0.802805,83,0,83,0,1,,,,,
,,,,,,,,,,,,,,,2,3,2020-12-09_14h23.30.605,Context_Learning_Pilot,2020.1.3,MacIntel,60,,,,,,,2,media/dinb.png,1,Symb,h,RT,0,0,84,0,1,6,1.8,3,h,1,0.858975,84,0,84,0,1,,,,,
,,,,,,,,,,,,,,,2,3,2020-12-09_14h23.30.605,Context_Learning_Pilot,2020.1.3,MacIntel,60,,,,,,,2,media/dinb.png,1,Symb,h,RT,0,0,85,0,1,6,1.8,3,h,1,0.85256,85,0,85,0,1,,,,,
,,,,,,,,,,,,,,,2,3,2020-12-09_14h23.30.605,Context_Learning_Pilot,2020.1.3,MacIntel,60,,,,,,,1,media/dnnb.png,1,Symb,i,RT,0,0,86,0,1,6,1.8,3,i,1,0.71258,86,0,86,0,1,,,,,
,,,,,,,,,,,,,,,2,3,2020-12-09_14h23.30.605,Context_Learning_Pilot,2020.1.3,MacIntel,60,,,,,,,0,media/djnb.png,2,Symb,h,RT,0,0,87,0,1,6,1.8,3,h,1,0.649845,87,0,87,0,1,,,,,
,,,,,,,,,,,,,,,2,3,2020-12-09_14h23.30.605,Context_Learning_Pilot,2020.1.3,MacIntel,60,,,,,,,0,media/djnb.png,1,Symb,u,RT,0,0,88,0,1,6,1.8,3,u,1,0.656345,88,0,88,0,1,,,,,
,,,,,,,,,,,,,,,2,3,2020-12-09_14h23.30.605,Context_Learning_Pilot,2020.1.3,MacIntel,60,,,,,,,1,media/dnnb.png,1,Symb,i,RT,0,0,89,0,1,6,1.8,3,i,1,0.78615,89,0,89,0,1,,,,,
