Stim,CorrResp,Ctx_color,imStim,imStim_r,imStim_g,x_pos,y_pos,Hand,Feedback,Import_Stim.thisRepN,Import_Stim.thisTrialN,Import_Stim.thisN,Import_Stim.thisIndex,Instr_Exp_Bool.thisRepN,Instr_Exp_Bool.thisTrialN,Instr_Exp_Bool.thisN,Instr_Exp_Bool.thisIndex,RT_Bool_Hand.thisRepN,RT_Bool_Hand.thisTrialN,RT_Bool_Hand.thisN,RT_Bool_Hand.thisIndex,TR_Bool_Hand.thisRepN,TR_Bool_Hand.thisTrialN,TR_Bool_Hand.thisN,TR_Bool_Hand.thisIndex,CR_Old_Bool.thisRepN,CR_Old_Bool.thisTrialN,CR_Old_Bool.thisN,CR_Old_Bool.thisIndex,RT_Bool.thisRepN,RT_Bool.thisTrialN,RT_Bool.thisN,RT_Bool.thisIndex,TR_Old_Bool.thisRepN,TR_Old_Bool.thisTrialN,TR_Old_Bool.thisN,TR_Old_Bool.thisIndex,TR_Old_Block.thisRepN,TR_Old_Block.thisTrialN,TR_Old_Block.thisN,TR_Old_Block.thisIndex,TR_Iter.thisRepN,TR_Iter.thisTrialN,TR_Iter.thisN,TR_Iter.thisIndex,TR_Feedback_Bool.thisRepN,TR_Feedback_Bool.thisTrialN,TR_Feedback_Bool.thisN,TR_Feedback_Bool.thisIndex,TR_Penalty_Bool.thisRepN,TR_Penalty_Bool.thisTrialN,TR_Penalty_Bool.thisN,TR_Penalty_Bool.thisIndex,stim_key_map_ctx1,stim_key_map_ctx2,Instr_TR_Old_text.started,Instr_TR_Old_text.stopped,Instr_TR_Old_Press.keys,Instr_TR_Old_Press.rt,Instr_TR_Old_Press.started,Instr_TR_Old_Press.stopped,Instr_Block_Num_Text.started,Instr_Block_Num_Text.stopped,Instr_Block_Num_Press.keys,Instr_Block_Num_Press.rt,Instr_Block_Num_Press.started,Instr_Block_Num_Press.stopped,Symbol,Stim_Type,Finger,Shape,ctx,Block_Type,Remap,Repeat_Count,Trial_Count,Grp_B,Brp_R,Block_Num,Set_Prep_Time,Day,TR_too_early,TR_too_late,TR_Circle_Frame.started,TR_Circle_Frame.stopped,TR_Circle.started,TR_Circle.stopped,TR_Ctx.started,TR_Ctx.stopped,TR_Stim_Image.started,TR_Stim_Image.stopped,TR_Press.keys,TR_Press.corr,TR_Press.rt,TR_Press.started,TR_Press.stopped,Tr_Circle_Frame_Feedback.started,Tr_Circle_Frame_Feedback.stopped,TR_Feedback_Text.started,TR_Feedback_Text.stopped,TR_Feedback_Image.started,TR_Feedback_Image.stopped,Post_Trial_Circle_Frame.started,Post_Trial_Circle_Frame.stopped,participant,day,date,expName,psychopyVersion,frameRate,
0,h,"[1, -1, -1]",media/djnb.png,media/djnb_r.png,media/djnb_g.png,-0.038,0.075,media/hand.png,media/check.png,0,0,0,0,,,,,,,,,,,,,,,,,,,,,,,,,,,,,,,,,,,,,,,,,,,,,,,,,,,,,,,,,,,,,,,,,,,,,,,,,,,,,,,,,,,,,,,,,,,,1,1,2020_Dec_04_1953,Context_Learning_new,2020.1.3,59.96231967062373,
1,u,"[1, -1, -1]",media/dnnb.png,media/dnnb_r.png,media/dnnb_g.png,0.014,0.1,media/hand.png,media/cross.png,0,1,1,1,,,,,,,,,,,,,,,,,,,,,,,,,,,,,,,,,,,,,,,,,,,,,,,,,,,,,,,,,,,,,,,,,,,,,,,,,,,,,,,,,,,,,,,,,,,,1,1,2020_Dec_04_1953,Context_Learning_new,2020.1.3,59.96231967062373,
2,i,"[1, -1, -1]",media/dinb.png,media/dinb_r.png,media/dinb_g.png,0.057,0.08,media/hand.png,None,0,2,2,2,,,,,,,,,,,,,,,,,,,,,,,,,,,,,,,,,,,,,,,,,,,,,,,,,,,,,,,,,,,,,,,,,,,,,,,,,,,,,,,,,,,,,,,,,,,,1,1,2020_Dec_04_1953,Context_Learning_new,2020.1.3,59.96231967062373,
3,l,"[1, -1, -1]",media/ddnb.png,media/ddnb_r.png,media/ddnb_g.png,0.1,0.04,media/hand.png,None,0,3,3,3,,,,,,,,,,,,,,,,,,,,,,,,,,,,,,,,,,,,,,,,,,,,,,,,,,,,,,,,,,,,,,,,,,,,,,,,,,,,,,,,,,,,,,,,,,,,1,1,2020_Dec_04_1953,Context_Learning_new,2020.1.3,59.96231967062373,
0,h,"[-1, 1, -1]",media/djnb.png,media/djnb_r.png,media/djnb_g.png,None,None,None,None,0,4,4,4,,,,,,,,,,,,,,,,,,,,,,,,,,,,,,,,,,,,,,,,,,,,,,,,,,,,,,,,,,,,,,,,,,,,,,,,,,,,,,,,,,,,,,,,,,,,1,1,2020_Dec_04_1953,Context_Learning_new,2020.1.3,59.96231967062373,
1,u,"[-1, 1, -1]",media/dnnb.png,media/dnnb_r.png,media/dnnb_g.png,None,None,None,None,0,5,5,5,,,,,,,,,,,,,,,,,,,,,,,,,,,,,,,,,,,,,,,,,,,,,,,,,,,,,,,,,,,,,,,,,,,,,,,,,,,,,,,,,,,,,,,,,,,,1,1,2020_Dec_04_1953,Context_Learning_new,2020.1.3,59.96231967062373,
2,i,"[-1, 1, -1]",media/dinb.png,media/dinb_r.png,media/dinb_g.png,None,None,None,None,0,6,6,6,,,,,,,,,,,,,,,,,,,,,,,,,,,,,,,,,,,,,,,,,,,,,,,,,,,,,,,,,,,,,,,,,,,,,,,,,,,,,,,,,,,,,,,,,,,,1,1,2020_Dec_04_1953,Context_Learning_new,2020.1.3,59.96231967062373,
3,l,"[-1, 1, -1]",media/ddnb.png,media/ddnb_r.png,media/ddnb_g.png,None,None,None,None,0,7,7,7,,,,,,,,,,,,,,,,,,,,,,,,,,,,,,,,,,,,,,,,,,,,,,,,,,,,,,,,,,,,,,,,,,,,,,,,,,,,,,,,,,,,,,,,,,,,1,1,2020_Dec_04_1953,Context_Learning_new,2020.1.3,59.96231967062373,
,,,,,,,,,,,,,,,,,,,,,,,,,,,,,,,,,,0,0,0,0,0,0,0,0,0,0,0,0,,,,,,,,,"(0, 2, 1, 3)","(1, 0, 3, 2)",8.207088500028476,None,h,0.6115658001508564,8.207088500028476,None,8.864229500060901,None,h,0.47501039993949234,8.864229500060901,None,0,Symb,u,media/djnb.png,2,TR,0,0,0,1,0,1,0.5018666553130637,1,0,0,9.366499800002202,9.366499800002202,9.366499800002202,None,9.366499800002202,None,10.473019799916074,None,h,0,1.6687690999824554,9.366499800002202,None,11.104478199966252,None,11.104478199966252,None,11.104478199966252,None,11.410274900030345,None,1,1,2020_Dec_04_1953,Context_Learning_new,2020.1.3,59.96231967062373,
,,,,,,,,,,,,,,,,,,,,,,,,,,,,,,,,,,0,0,0,0,0,0,0,0,1,0,1,0,,,,,,,,,,,,,,,,,,,,,,,3,Symb,i,media/ddnb.png,2,TR,0,0,1,1,0,1,0.5825755764210758,1,0,0,11.624853099929169,11.624853099929169,11.624853099929169,None,11.624853099929169,None,12.625127200037241,None,l,0,1.5622972999699414,11.624853099929169,None,13.212281299987808,None,13.212281299987808,None,13.212281299987808,None,13.526430800091475,None,1,1,2020_Dec_04_1953,Context_Learning_new,2020.1.3,59.96231967062373,
,,,,,,,,,,,,,,,,,,,,,,,,,,,,,,,,,,0,0,0,0,0,0,0,0,2,0,2,0,,,,,,,,,,,,,,,,,,,,,,,2,Symb,l,media/dinb.png,2,TR,0,0,2,1,0,1,0.9269223334772216,1,0,0,13.731394400121644,13.731394400121644,13.731394400121644,None,13.731394400121644,None,14.391971200006083,None,u,0,1.615211200201884,13.731394400121644,None,15.381700899917632,None,15.381700899917632,None,15.381700899917632,None,15.693088100058958,None,1,1,2020_Dec_04_1953,Context_Learning_new,2020.1.3,59.96231967062373,
,,,,,,,,,,,,,,,,,,,,,,,,,,,,,,,,,,0,0,0,0,0,0,0,0,3,0,3,0,,,,,,,,,,,,,,,,,,,,,,,2,Symb,l,media/dinb.png,2,TR,0,0,3,1,0,1,0.7761224990525855,1,0,0,15.908464299980551,15.908464299980551,15.908464299980551,None,15.908464299980551,None,16.710874000098556,None,i,0,1.5824152999557555,15.908464299980551,None,17.5120802000165,None,17.5120802000165,None,17.5120802000165,None,17.82544060004875,None,1,1,2020_Dec_04_1953,Context_Learning_new,2020.1.3,59.96231967062373,
,,,,,,,,,,,,,,,,,,,,,,,,,,,,,,,,,,0,0,0,0,0,0,0,0,4,0,4,0,,,,,,,,,,,,,,,,,,,,,,,3,Symb,l,media/ddnb.png,1,TR,0,0,4,1,0,1,1.1050436813179345,1,0,0,18.028518700040877,18.028518700040877,18.028518700040877,None,18.028518700040877,None,18.508278799941763,None,l,1,1.5102824000641704,18.028518700040877,None,19.62102079996839,None,19.62102079996839,None,19.62102079996839,None,19.925143799977377,None,1,1,2020_Dec_04_1953,Context_Learning_new,2020.1.3,59.96231967062373,
,,,,,,,,,,,,,,,,,,,,,,,,,,,,,,,,,,0,0,0,0,0,0,0,0,5,0,5,0,,,,,,,,,,,,,,,,,,,,,,,1,Symb,h,media/dnnb.png,2,TR,0,0,5,1,0,1,1.273167046933827,1,0,0,20.13166860002093,20.13166860002093,20.13166860002093,None,20.13166860002093,None,20.441579299978912,None,h,1,1.583002199884504,20.13166860002093,None,21.752366699976847,None,21.752366699976847,None,21.752366699976847,None,22.05876570008695,None,1,1,2020_Dec_04_1953,Context_Learning_new,2020.1.3,59.96231967062373,
,,,,,,,,,,,,,,,,,,,,,,,,,,,,,,,,,,0,0,0,0,0,0,0,0,6,0,6,0,,,,,,,,,,,,,,,,,,,,,,,3,Symb,l,media/ddnb.png,1,TR,0,0,6,1,0,1,0.9915017193974667,1,0,0,22.258312500081956,22.258312500081956,22.258312500081956,None,22.258312500081956,None,22.859719400061294,None,l,1,1.6244332999922335,22.258312500081956,None,23.91566150006838,None,23.91566150006838,None,23.91566150006838,None,24.225233900127932,None,1,1,2020_Dec_04_1953,Context_Learning_new,2020.1.3,59.96231967062373,
,,,,,,,,,,,,,,,,,,,,,,,,,,,,,,,,,,0,0,0,0,0,0,0,0,7,0,7,0,,,,,,,,,,,,,,,,,,,,,,,1,Symb,i,media/dnnb.png,1,TR,0,0,7,1,0,1,0.6692883794833933,1,0,0,24.42518480005674,24.42518480005674,24.42518480005674,None,24.42518480005674,None,25.343568100128323,None,h,0,1.6496280001010746,24.42518480005674,None,26.107203399995342,None,26.107203399995342,None,26.107203399995342,None,26.408613099949434,None,1,1,2020_Dec_04_1953,Context_Learning_new,2020.1.3,59.96231967062373,
,,,,,,,,,,,,,,,,,,,,,,,,,,,,,,,,,,0,0,0,0,0,0,0,0,8,0,8,0,,,,,,,,,,,,,,,,,,,,,,,1,Symb,h,media/dnnb.png,2,TR,0,0,8,1,0,1,0.28933320606495494,1,0,0,26.615135699976236,26.615135699976236,26.615135699976236,None,26.615135699976236,None,27.90969519992359,None,u,0,1.539661900140345,26.615135699976236,None,28.18745830003172,None,28.18745830003172,None,28.18745830003172,None,28.491760400123894,None,1,1,2020_Dec_04_1953,Context_Learning_new,2020.1.3,59.96231967062373,
,,,,,,,,,,,,,,,,,,,,,,,,,,,,,,,,,,0,0,0,0,0,0,0,0,9,0,9,0,,,,,,,,,,,,,,,,,,,,,,,2,Symb,u,media/dinb.png,1,TR,0,0,9,1,0,1,0.43441345667942044,1,0,0,28.691939200041816,28.691939200041816,28.691939200041816,None,28.691939200041816,None,29.842487100046128,None,i,0,1.6550485999323428,28.691939200041816,None,30.390243500005454,None,30.390243500005454,None,30.390243500005454,None,30.6916879999917,None,1,1,2020_Dec_04_1953,Context_Learning_new,2020.1.3,59.96231967062373,
,,,,,,,,,,,,,,,,,,,,,,,,,,,,,,,,,,0,0,0,0,0,0,0,0,,,,,,,,,,,,,,,,,,,,,,,,,,,,,,,,,,,,,,,,,,,,,,,,,,,,,,,,,,,,,,,,1,1,2020_Dec_04_1953,Context_Learning_new,2020.1.3,59.96231967062373,
,,,,,,,,,,,,,,,,,,,,,,,,,,,,,,,,,,0,0,0,0,1,0,1,0,0,0,0,0,,,,,,,,,,,,,,,,,30.893130599986762,None,h,1.077682200120762,30.893130599986762,None,1,Symb,h,media/dnnb.png,2,TR,0,0,0,1,0,2,0.9582934804115693,1,0,0,31.99353460012935,31.99353460012935,31.99353460012935,None,31.99353460012935,None,32.627396299969405,None,h,1,1.6092742001637816,31.99353460012935,None,33.649847000138834,None,33.649847000138834,None,33.649847000138834,None,33.95833529997617,None,1,1,2020_Dec_04_1953,Context_Learning_new,2020.1.3,59.96231967062373,
,,,,,,,,,,,,,,,,,,,,,,,,,,,,,,,,,,0,0,0,0,1,0,1,0,1,0,1,0,,,,,,,,,,,,,,,,,,,,,,,2,Symb,l,media/dinb.png,2,TR,0,0,1,1,0,2,0.6002438875817193,1,0,0,34.15837420010939,34.15837420010939,34.15837420010939,None,34.15837420010939,None,35.142248100135475,None,l,1,1.5725802001543343,34.15837420010939,None,35.767457799986005,None,35.767457799986005,None,35.767457799986005,None,36.07715309993364,None,1,1,2020_Dec_04_1953,Context_Learning_new,2020.1.3,59.96231967062373,
,,,,,,,,,,,,,,,,,,,,,,,,,,,,,,,,,,0,0,0,0,1,0,1,0,2,0,2,0,,,,,,,,,,,,,,,,,,,,,,,1,Symb,i,media/dnnb.png,1,TR,0,0,2,1,0,2,0.8063982059337829,1,0,0,36.29194570006803,36.29194570006803,36.29194570006803,None,36.29194570006803,None,37.07713089999743,None,i,1,1.758893300080672,36.29194570006803,None,38.08733820007183,None,38.08733820007183,None,38.08733820007183,None,38.39200540003367,None,1,1,2020_Dec_04_1953,Context_Learning_new,2020.1.3,59.96231967062373,
,,,,,,,,,,,,,,,,,,,,,,,,,,,,,,,,,,0,0,0,0,1,0,1,0,3,0,3,0,,,,,,,,,,,,,,,,,,,,,,,3,Symb,l,media/ddnb.png,1,TR,0,0,3,1,0,2,0.6863674349233446,1,0,0,38.59293800010346,38.59293800010346,38.59293800010346,None,38.59293800010346,None,39.4920121000614,None,l,1,1.6832501001190394,38.59293800010346,None,40.31812680000439,None,40.31812680000439,None,40.31812680000439,None,40.6253529000096,None,1,1,2020_Dec_04_1953,Context_Learning_new,2020.1.3,59.96231967062373,
,,,,,,,,,,,,,,,,,,,,,,,,,,,,,,,,,,0,0,0,0,1,0,1,0,4,0,4,0,,,,,,,,,,,,,,,,,,,,,,,0,Symb,u,media/djnb.png,2,TR,0,0,4,1,0,2,1.1106381832404137,1,0,0,40.83307950012386,40.83307950012386,40.83307950012386,None,40.83307950012386,None,41.30856400006451,None,u,1,1.5458268001675606,40.83307950012386,None,42.42978930007666,None,42.42978930007666,None,42.42978930007666,None,42.74207939999178,None,1,1,2020_Dec_04_1953,Context_Learning_new,2020.1.3,59.96231967062373,
,,,,,,,,,,,,,,,,,,,,,,,,,,,,,,,,,,0,0,0,0,1,0,1,0,5,0,5,0,,,,,,,,,,,,,,,,,,,,,,,0,Symb,h,media/djnb.png,1,TR,0,0,5,1,0,2,1.0721492798193428,1,0,0,42.946507500018924,42.946507500018924,42.946507500018924,None,42.946507500018924,None,43.458666699938476,None,h,1,1.6569703998975456,42.946507500018924,None,44.64047300000675,None,44.64047300000675,None,44.64047300000675,None,44.94201879994944,None,1,1,2020_Dec_04_1953,Context_Learning_new,2020.1.3,59.96231967062373,
,,,,,,,,,,,,,,,,,,,,,,,,,,,,,,,,,,0,0,0,0,1,0,1,0,6,0,6,0,,,,,,,,,,,,,,,,,,,,,,,1,Symb,i,media/dnnb.png,1,TR,0,0,6,1,0,2,0.5027990471151629,1,0,0,45.147073900094256,45.147073900094256,45.147073900094256,None,45.147073900094256,None,46.24194350000471,None,i,1,1.5120119000785053,45.147073900094256,None,46.683143800124526,None,46.683143800124526,None,46.683143800124526,None,46.99443079996854,None,1,1,2020_Dec_04_1953,Context_Learning_new,2020.1.3,59.96231967062373,
,,,,,,,,,,,,,,,,,,,,,,,,,,,,,,,,,,0,0,0,0,1,0,1,0,7,0,7,0,,,,,,,,,,,,,,,,,,,,,,,3,Symb,i,media/ddnb.png,2,TR,0,0,7,1,0,2,0.1869201932365756,1,0,0,47.20874079992063,47.20874079992063,47.20874079992063,None,47.20874079992063,None,48.60891290009022,None,u,0,1.5553020001389086,47.20874079992063,None,48.830998100107536,None,48.830998100107536,None,48.830998100107536,None,49.142080900026485,None,1,1,2020_Dec_04_1953,Context_Learning_new,2020.1.3,59.96231967062373,
,,,,,,,,,,,,,,,,,,,,,,,,,,,,,,,,,,0,0,0,0,1,0,1,0,8,0,8,0,,,,,,,,,,,,,,,,,,,,,,,1,Symb,h,media/dnnb.png,2,TR,0,0,8,1,0,2,0.5145900440676456,1,0,0,49.346764400135726,49.346764400135726,49.346764400135726,None,49.346764400135726,None,50.42554460000247,None,l,0,1.5759058000985533,49.346764400135726,None,50.95388450007886,None,50.95388450007886,None,50.95388450007886,None,51.260242300108075,None,1,1,2020_Dec_04_1953,Context_Learning_new,2020.1.3,59.96231967062373,
,,,,,,,,,,,,,,,,,,,,,,,,,,,,,,,,,,0,0,0,0,1,0,1,0,9,0,9,0,,,,,,,,,,,,,,,,,,,,,,,0,Symb,u,media/djnb.png,2,TR,0,0,9,1,0,2,0.4391268436433484,1,0,0,51.475419000023976,51.475419000023976,51.475419000023976,None,51.475419000023976,None,52.62552920007147,None,h,0,1.7284347999375314,51.475419000023976,None,53.25177350011654,None,53.25177350011654,None,53.25177350011654,None,53.5585996999871,None,1,1,2020_Dec_04_1953,Context_Learning_new,2020.1.3,59.96231967062373,
,,,,,,,,,,,,,,,,,,,,,,,,,,,,,,,,,,0,0,0,0,1,0,1,0,,,,,,,,,,,,,,,,,,,,,,,,,,,,,,,,,,,,,,,,,,,,,,,,,,,,,,,,,,,,,,,,1,1,2020_Dec_04_1953,Context_Learning_new,2020.1.3,59.96231967062373,
,,,,,,,,,,,,,,,,,,,,,,,,,,,,,,,,,,0,0,0,0,2,0,2,0,0,0,0,0,,,,,,,,,,,,,,,,,53.76943979994394,None,h,2.5539734999183565,53.76943979994394,None,0,Symb,h,media/djnb.png,1,TR,0,0,0,1,0,3,0.31625298130830903,1,0,0,56.354794800048694,56.354794800048694,56.354794800048694,None,56.354794800048694,None,57.64237240003422,None,h,1,1.6079528001137078,56.354794800048694,None,58.0075878999196,None,58.0075878999196,None,58.0075878999196,None,58.30918599991128,None,1,1,2020_Dec_04_1953,Context_Learning_new,2020.1.3,59.96231967062373,
,,,,,,,,,,,,,,,,,,,,,,,,,,,,,,,,,,0,0,0,0,2,0,2,0,1,0,1,0,,,,,,,,,,,,,,,,,,,,,,,0,Symb,h,media/djnb.png,1,TR,0,0,1,1,0,3,0.6052303231270917,1,0,0,58.51491710008122,58.51491710008122,58.51491710008122,None,58.51491710008122,None,59.508880499983206,None,i,0,1.5996600999496877,58.51491710008122,None,60.15857350011356,None,60.15857350011356,None,60.15857350011356,None,60.45951890014112,None,1,1,2020_Dec_04_1953,Context_Learning_new,2020.1.3,59.96231967062373,
,,,,,,,,,,,,,,,,,,,,,,,,,,,,,,,,,,0,0,0,0,2,0,2,0,2,0,2,0,,,,,,,,,,,,,,,,,,,,,,,1,Symb,i,media/dnnb.png,1,TR,0,0,2,1,0,3,0.2560083026569533,1,0,0,60.658706800080836,60.658706800080836,60.658706800080836,None,60.658706800080836,None,61.99189840001054,None,h,0,1.6484429000411183,60.658706800080836,None,62.34095380012877,None,62.34095380012877,None,62.34095380012877,None,62.644465500023216,None,1,1,2020_Dec_04_1953,Context_Learning_new,2020.1.3,59.96231967062373,
,,,,,,,,,,,,,,,,,,,,,,,,,,,,,,,,,,0,0,0,0,2,0,2,0,3,0,3,0,,,,,,,,,,,,,,,,,,,,,,,3,Symb,l,media/ddnb.png,1,TR,0,0,3,1,0,3,1.2855454474537464,1,0,0,62.86453330004588,62.86453330004588,62.86453330004588,None,62.86453330004588,None,63.1753756001126,None,l,1,1.666070400038734,62.86453330004588,None,64.58307759999298,None,64.58307759999298,None,64.58307759999298,None,64.89228740008548,None,1,1,2020_Dec_04_1953,Context_Learning_new,2020.1.3,59.96231967062373,
,,,,,,,,,,,,,,,,,,,,,,,,,,,,,,,,,,0,0,0,0,2,0,2,0,4,0,4,0,,,,,,,,,,,,,,,,,,,,,,,2,Symb,u,media/dinb.png,1,TR,0,0,4,1,0,3,0.2939009504476784,1,0,0,65.09224259993061,65.09224259993061,65.09224259993061,None,65.09224259993061,None,66.37561470014043,None,h,0,1.5035931998863816,65.09224259993061,None,66.61889269994572,None,66.61889269994572,None,66.61889269994572,None,66.92555820010602,None,1,1,2020_Dec_04_1953,Context_Learning_new,2020.1.3,59.96231967062373,
,,,,,,,,,,,,,,,,,,,,,,,,,,,,,,,,,,0,0,0,0,2,0,2,0,5,0,5,0,,,,,,,,,,,,,,,,,,,,,,,1,Symb,i,media/dnnb.png,1,TR,0,0,5,1,0,3,0.07683918777257692,1,0,0,67.1260643999558,67.1260643999558,67.1260643999558,None,67.1260643999558,None,68.64229699992575,None,l,0,1.605133900186047,67.1260643999558,None,68.76223460002802,None,68.76223460002802,None,68.76223460002802,None,69.07580880005844,None,1,1,2020_Dec_04_1953,Context_Learning_new,2020.1.3,59.96231967062373,
,,,,,,,,,,,,,,,,,,,,,,,,,,,,,,,,,,0,0,0,0,2,0,2,0,6,0,6,0,,,,,,,,,,,,,,,,,,,,,,,3,Symb,l,media/ddnb.png,1,TR,0,0,6,1,0,3,0.7683224633836347,1,0,0,69.27582930005156,69.27582930005156,69.27582930005156,None,69.27582930005156,None,70.09260360011831,None,l,1,1.5669413998257369,69.27582930005156,None,70.8679188999813,None,70.8679188999813,None,70.8679188999813,None,71.17552910000086,None,1,1,2020_Dec_04_1953,Context_Learning_new,2020.1.3,59.96231967062373,
,,,,,,,,,,,,,,,,,,,,,,,,,,,,,,,,,,0,0,0,0,2,0,2,0,7,0,7,0,,,,,,,,,,,,,,,,,,,,,,,2,Symb,u,media/dinb.png,1,TR,0,0,7,1,0,3,0.2580965047331736,1,0,0,71.37636009999551,71.37636009999551,71.37636009999551,None,71.37636009999551,None,72.70902650011703,None,h,0,1.5622566000092775,71.37636009999551,None,72.97400310006924,None,72.97400310006924,None,72.97400310006924,None,73.27703110012226,None,1,1,2020_Dec_04_1953,Context_Learning_new,2020.1.3,59.96231967062373,
