Stim,CorrResp,Ctx_color,imStim,imStim_r,imStim_g,x_pos,y_pos,Hand,Feedback,Import_Stim.thisRepN,Import_Stim.thisTrialN,Import_Stim.thisN,Import_Stim.thisIndex,Instr_Exp_Bool.thisRepN,Instr_Exp_Bool.thisTrialN,Instr_Exp_Bool.thisN,Instr_Exp_Bool.thisIndex,RT_Bool_Hand.thisRepN,RT_Bool_Hand.thisTrialN,RT_Bool_Hand.thisN,RT_Bool_Hand.thisIndex,TR_Bool_Hand.thisRepN,TR_Bool_Hand.thisTrialN,TR_Bool_Hand.thisN,TR_Bool_Hand.thisIndex,CR_Old_Bool.thisRepN,CR_Old_Bool.thisTrialN,CR_Old_Bool.thisN,CR_Old_Bool.thisIndex,RT_Bool.thisRepN,RT_Bool.thisTrialN,RT_Bool.thisN,RT_Bool.thisIndex,TR_Old_Bool.thisRepN,TR_Old_Bool.thisTrialN,TR_Old_Bool.thisN,TR_Old_Bool.thisIndex,TR_Old_Block.thisRepN,TR_Old_Block.thisTrialN,TR_Old_Block.thisN,TR_Old_Block.thisIndex,TR_Iter.thisRepN,TR_Iter.thisTrialN,TR_Iter.thisN,TR_Iter.thisIndex,TR_Feedback_Bool.thisRepN,TR_Feedback_Bool.thisTrialN,TR_Feedback_Bool.thisN,TR_Feedback_Bool.thisIndex,TR_Penalty_Bool.thisRepN,TR_Penalty_Bool.thisTrialN,TR_Penalty_Bool.thisN,TR_Penalty_Bool.thisIndex,stim_key_map_ctx1,stim_key_map_ctx2,Instr_TR_text.started,Instr_TR_text.stopped,Instr_TR_Press.keys,Instr_TR_Press.rt,Instr_TR_Press.started,Instr_TR_Press.stopped,Instr_Block_Num_Text.started,Instr_Block_Num_Text.stopped,Instr_Block_Num_Press.keys,Instr_Block_Num_Press.rt,Instr_Block_Num_Press.started,Instr_Block_Num_Press.stopped,Symbol,Finger,Shape,ctx,Block_Type,Remap,Repeat_Count,Trial_Count,Grp_B,Brp_R,Block_Num,Set_Prep_Time,Day,TR_too_early,TR_too_late,TR_Circle_Frame.started,TR_Circle_Frame.stopped,TR_Circle.started,TR_Circle.stopped,TR_Ctx.started,TR_Ctx.stopped,TR_Stim_Image.started,TR_Stim_Image.stopped,TR_Press.keys,TR_Press.corr,TR_Press.rt,TR_Press.started,TR_Press.stopped,Tr_Circle_Frame_Feedback.started,Tr_Circle_Frame_Feedback.stopped,TR_Feedback_Text.started,TR_Feedback_Text.stopped,TR_Feedback_Image.started,TR_Feedback_Image.stopped,Post_Trial_Circle_Frame.started,Post_Trial_Circle_Frame.stopped,participant,day,date,expName,psychopyVersion,frameRate,
0,h,"[1, -1, -1]",media/djnb.png,media/djnb_r.png,media/djnb_g.png,-0.038,0.075,media/hand.png,media/check.png,0,0,0,0,,,,,,,,,,,,,,,,,,,,,,,,,,,,,,,,,,,,,,,,,,,,,,,,,,,,,,,,,,,,,,,,,,,,,,,,,,,,,,,,,,,,,,,,,,,2,1,2020_Dec_04_1534,Context_Learning_new,2020.1.3,59.87418042897265,
1,u,"[1, -1, -1]",media/dnnb.png,media/dnnb_r.png,media/dnnb_g.png,0.014,0.1,media/hand.png,media/cross.png,0,1,1,1,,,,,,,,,,,,,,,,,,,,,,,,,,,,,,,,,,,,,,,,,,,,,,,,,,,,,,,,,,,,,,,,,,,,,,,,,,,,,,,,,,,,,,,,,,,2,1,2020_Dec_04_1534,Context_Learning_new,2020.1.3,59.87418042897265,
2,i,"[1, -1, -1]",media/dinb.png,media/dinb_r.png,media/dinb_g.png,0.057,0.08,media/hand.png,None,0,2,2,2,,,,,,,,,,,,,,,,,,,,,,,,,,,,,,,,,,,,,,,,,,,,,,,,,,,,,,,,,,,,,,,,,,,,,,,,,,,,,,,,,,,,,,,,,,,2,1,2020_Dec_04_1534,Context_Learning_new,2020.1.3,59.87418042897265,
3,l,"[1, -1, -1]",media/ddnb.png,media/ddnb_r.png,media/ddnb_g.png,0.1,0.04,media/hand.png,None,0,3,3,3,,,,,,,,,,,,,,,,,,,,,,,,,,,,,,,,,,,,,,,,,,,,,,,,,,,,,,,,,,,,,,,,,,,,,,,,,,,,,,,,,,,,,,,,,,,2,1,2020_Dec_04_1534,Context_Learning_new,2020.1.3,59.87418042897265,
0,h,"[-1, 1, -1]",media/djnb.png,media/djnb_r.png,media/djnb_g.png,None,None,None,None,0,4,4,4,,,,,,,,,,,,,,,,,,,,,,,,,,,,,,,,,,,,,,,,,,,,,,,,,,,,,,,,,,,,,,,,,,,,,,,,,,,,,,,,,,,,,,,,,,,2,1,2020_Dec_04_1534,Context_Learning_new,2020.1.3,59.87418042897265,
1,u,"[-1, 1, -1]",media/dnnb.png,media/dnnb_r.png,media/dnnb_g.png,None,None,None,None,0,5,5,5,,,,,,,,,,,,,,,,,,,,,,,,,,,,,,,,,,,,,,,,,,,,,,,,,,,,,,,,,,,,,,,,,,,,,,,,,,,,,,,,,,,,,,,,,,,2,1,2020_Dec_04_1534,Context_Learning_new,2020.1.3,59.87418042897265,
2,i,"[-1, 1, -1]",media/dinb.png,media/dinb_r.png,media/dinb_g.png,None,None,None,None,0,6,6,6,,,,,,,,,,,,,,,,,,,,,,,,,,,,,,,,,,,,,,,,,,,,,,,,,,,,,,,,,,,,,,,,,,,,,,,,,,,,,,,,,,,,,,,,,,,2,1,2020_Dec_04_1534,Context_Learning_new,2020.1.3,59.87418042897265,
3,l,"[-1, 1, -1]",media/ddnb.png,media/ddnb_r.png,media/ddnb_g.png,None,None,None,None,0,7,7,7,,,,,,,,,,,,,,,,,,,,,,,,,,,,,,,,,,,,,,,,,,,,,,,,,,,,,,,,,,,,,,,,,,,,,,,,,,,,,,,,,,,,,,,,,,,2,1,2020_Dec_04_1534,Context_Learning_new,2020.1.3,59.87418042897265,
,,,,,,,,,,,,,,,,,,,,,,,,,,,,,,,,,,0,0,0,0,0,0,0,0,0,0,0,0,,,,,,,,,"(0, 3, 1, 2)","(1, 0, 2, 3)",11.780804799869657,None,h,0.907367599895224,11.780804799869657,None,12.748308799928054,None,h,0.4504332998767495,12.748308799928054,None,0,h,media/djnb.png,1,TR,0,0,0,1,0,1,1.1232201584175154,1,0,0,13.225029400084168,13.225029400084168,13.225029400084168,None,13.225029400084168,None,13.707221899880096,None,h,1,1.477699400158599,13.225029400084168,None,14.744349299930036,None,14.744349299930036,None,14.744349299930036,None,15.053993900073692,None,2,1,2020_Dec_04_1534,Context_Learning_new,2020.1.3,59.87418042897265,
,,,,,,,,,,,,,,,,,,,,,,,,,,,,,,,,,,0,0,0,0,0,0,0,0,1,0,1,0,,,,,,,,,,,,,,,,,,,,,,,2,u,media/dinb.png,1,TR,0,0,1,1,0,1,1.0762202848041489,1,0,0,15.253857899922878,15.253857899922878,15.253857899922878,None,15.253857899922878,None,15.772716799983755,None,u,1,1.5776627999730408,15.253857899922878,None,16.880322499899194,None,16.880322499899194,None,16.880322499899194,None,17.188519099960104,None,2,1,2020_Dec_04_1534,Context_Learning_new,2020.1.3,59.87418042897265,
,,,,,,,,,,,,,,,,,,,,,,,,,,,,,,,,,,0,0,0,0,0,0,0,0,2,0,2,0,,,,,,,,,,,,,,,,,,,,,,,2,u,media/dinb.png,1,TR,0,0,2,1,0,1,0.23031961374295773,1,0,0,17.4101432999596,17.4101432999596,17.4101432999596,None,17.4101432999596,None,18.77067180001177,None,i,0,1.5804818000178784,17.4101432999596,None,19.034843399887905,None,19.034843399887905,None,19.034843399887905,None,19.33743659988977,None,2,1,2020_Dec_04_1534,Context_Learning_new,2020.1.3,59.87418042897265,
,,,,,,,,,,,,,,,,,,,,,,,,,,,,,,,,,,0,0,0,0,0,0,0,0,3,0,3,0,,,,,,,,,,,,,,,,,,,,,,,1,l,media/dnnb.png,1,TR,0,0,3,1,0,1,0.6662639667028782,1,0,0,19.53820339986123,19.53820339986123,19.53820339986123,None,19.53820339986123,None,20.453906199894845,None,l,1,1.5971001998987049,19.53820339986123,None,21.183926299912855,None,21.183926299912855,None,21.183926299912855,None,21.48735349997878,None,2,1,2020_Dec_04_1534,Context_Learning_new,2020.1.3,59.87418042897265,
,,,,,,,,,,,,,,,,,,,,,,,,,,,,,,,,,,0,0,0,0,0,0,0,0,4,0,4,0,,,,,,,,,,,,,,,,,,,,,,,3,i,media/ddnb.png,1,TR,0,0,4,1,0,1,0.681874218958886,1,0,0,21.686924299923703,21.686924299923703,21.686924299923703,None,21.686924299923703,None,22.587806399911642,None,h,0,1.599714000010863,21.686924299923703,None,23.30864889989607,None,23.30864889989607,None,23.30864889989607,None,23.620536899892613,None,2,1,2020_Dec_04_1534,Context_Learning_new,2020.1.3,59.87418042897265,
,,,,,,,,,,,,,,,,,,,,,,,,,,,,,,,,,,0,0,0,0,0,0,0,0,5,0,5,0,,,,,,,,,,,,,,,,,,,,,,,1,l,media/dnnb.png,1,TR,0,0,5,1,0,1,0.0040038125072163755,1,0,0,23.82052919990383,23.82052919990383,23.82052919990383,None,23.82052919990383,None,None,None,u,0,1.5382980001159012,23.82052919990383,None,25.391358099877834,None,25.391358099877834,None,25.391358099877834,None,25.70562450005673,None,2,1,2020_Dec_04_1534,Context_Learning_new,2020.1.3,59.87418042897265,
,,,,,,,,,,,,,,,,,,,,,,,,,,,,,,,,,,0,0,0,0,0,0,0,0,6,0,6,0,,,,,,,,,,,,,,,,,,,,,,,3,i,media/ddnb.png,1,TR,0,0,6,1,0,1,0.7200464350011597,1,0,0,25.908340299967676,25.908340299967676,25.908340299967676,None,25.908340299967676,None,26.770512599963695,None,i,1,1.5228667000774294,25.908340299967676,None,27.460902200080454,None,27.460902200080454,None,27.460902200080454,None,27.770531199872494,None,2,1,2020_Dec_04_1534,Context_Learning_new,2020.1.3,59.87418042897265,
,,,,,,,,,,,,,,,,,,,,,,,,,,,,,,,,,,0,0,0,0,0,0,0,0,7,0,7,0,,,,,,,,,,,,,,,,,,,,,,,0,h,media/djnb.png,1,TR,0,0,7,1,0,1,0.5190083732663,1,0,0,27.970579399960116,27.970579399960116,27.970579399960116,None,27.970579399960116,None,29.037197599885985,None,h,1,1.515940299956128,27.970579399960116,None,29.51106909988448,None,29.51106909988448,None,29.51106909988448,None,29.82150229997933,None,2,1,2020_Dec_04_1534,Context_Learning_new,2020.1.3,59.87418042897265,
,,,,,,,,,,,,,,,,,,,,,,,,,,,,,,,,,,0,0,0,0,0,0,0,0,8,0,8,0,,,,,,,,,,,,,,,,,,,,,,,1,l,media/dnnb.png,1,TR,0,0,8,1,0,1,0.818170943137857,1,0,0,30.025821899995208,30.025821899995208,30.025821899995208,None,30.025821899995208,None,30.804966500028968,None,u,0,1.5087257998529822,30.025821899995208,None,31.55762209999375,None,31.55762209999375,None,31.55762209999375,None,31.87031379994005,None,2,1,2020_Dec_04_1534,Context_Learning_new,2020.1.3,59.87418042897265,
,,,,,,,,,,,,,,,,,,,,,,,,,,,,,,,,,,0,0,0,0,0,0,0,0,9,0,9,0,,,,,,,,,,,,,,,,,,,,,,,3,i,media/ddnb.png,1,TR,0,0,9,1,0,1,0.8966228248106758,1,0,0,32.07271229987964,32.07271229987964,32.07271229987964,None,32.07271229987964,None,32.77060419996269,None,i,1,1.5337418999988586,32.07271229987964,None,33.656162899918854,None,33.656162899918854,None,33.656162899918854,None,33.971619700081646,None,2,1,2020_Dec_04_1534,Context_Learning_new,2020.1.3,59.87418042897265,
,,,,,,,,,,,,,,,,,,,,,,,,,,,,,,,,,,0,0,0,0,0,0,0,0,,,,,,,,,,,,,,,,,,,,,,,,,,,,,,,,,,,,,,,,,,,,,,,,,,,,,,,,,,,,,,,2,1,2020_Dec_04_1534,Context_Learning_new,2020.1.3,59.87418042897265,
,,,,,,,,,,,,,,,,,,,,,,,,,,,,,,,,,,0,0,0,0,1,0,1,0,0,0,0,0,,,,,,,,,,,,,,,,,34.19108979986049,None,h,5.447802799986675,34.19108979986049,None,0,h,media/djnb.png,1,TR,0,0,0,1,0,2,0.4219944155113038,1,0,0,39.6657811999321,39.6657811999321,39.6657811999321,None,39.6657811999321,None,40.83715269993991,None,h,1,1.7179582000244409,39.6657811999321,None,41.42613839986734,None,41.42613839986734,None,41.42613839986734,None,41.73873419989832,None,2,1,2020_Dec_04_1534,Context_Learning_new,2020.1.3,59.87418042897265,
,,,,,,,,,,,,,,,,,,,,,,,,,,,,,,,,,,0,0,0,0,1,0,1,0,1,0,1,0,,,,,,,,,,,,,,,,,,,,,,,1,l,media/dnnb.png,1,TR,0,0,1,1,0,2,0.17788595732447354,1,0,0,41.95426609995775,41.95426609995775,41.95426609995775,None,41.95426609995775,None,43.37059840001166,None,u,0,1.6202849999535829,41.95426609995775,None,43.61446479987353,None,43.61446479987353,None,43.61446479987353,None,43.92061510006897,None,2,1,2020_Dec_04_1534,Context_Learning_new,2020.1.3,59.87418042897265,
,,,,,,,,,,,,,,,,,,,,,,,,,,,,,,,,,,0,0,0,0,1,0,1,0,2,0,2,0,,,,,,,,,,,,,,,,,,,,,,,3,i,media/ddnb.png,1,TR,0,0,2,1,0,2,0.9637389893044759,1,0,0,44.123851999873295,44.123851999873295,44.123851999873295,None,44.123851999873295,None,44.755492999916896,None,i,1,1.5149811999872327,44.123851999873295,None,45.66402669996023,None,45.66402669996023,None,45.66402669996023,None,45.97218669997528,None,2,1,2020_Dec_04_1534,Context_Learning_new,2020.1.3,59.87418042897265,
,,,,,,,,,,,,,,,,,,,,,,,,,,,,,,,,,,0,0,0,0,1,0,1,0,3,0,3,0,,,,,,,,,,,,,,,,,,,,,,,2,u,media/dinb.png,1,TR,0,0,3,1,0,2,0.02177771899763581,1,0,0,46.17713769990951,46.17713769990951,46.17713769990951,None,46.17713769990951,None,47.75389440008439,None,l,0,1.573223700048402,46.17713769990951,None,47.77435939991847,None,47.77435939991847,None,47.77435939991847,None,48.08715799986385,None,2,1,2020_Dec_04_1534,Context_Learning_new,2020.1.3,59.87418042897265,
,,,,,,,,,,,,,,,,,,,,,,,,,,,,,,,,,,0,0,0,0,1,0,1,0,4,0,4,0,,,,,,,,,,,,,,,,,,,,,,,1,l,media/dnnb.png,1,TR,0,0,4,1,0,2,0.3716542345782565,1,0,0,48.294497600058094,48.294497600058094,48.294497600058094,None,48.294497600058094,None,49.50719180004671,None,h,0,1.552235099952668,48.294497600058094,None,49.88040539994836,None,49.88040539994836,None,49.88040539994836,None,50.18734459998086,None,2,1,2020_Dec_04_1534,Context_Learning_new,2020.1.3,59.87418042897265,
,,,,,,,,,,,,,,,,,,,,,,,,,,,,,,,,,,0,0,0,0,1,0,1,0,5,0,5,0,,,,,,,,,,,,,,,,,,,,,,,0,h,media/djnb.png,1,TR,0,0,5,1,0,2,0.8897204516209503,1,0,0,50.38739679986611,50.38739679986611,50.38739679986611,None,50.38739679986611,None,51.08742569992319,None,h,1,1.5162603999488056,50.38739679986611,None,51.933851399924606,None,51.933851399924606,None,51.933851399924606,None,52.23716069990769,None,2,1,2020_Dec_04_1534,Context_Learning_new,2020.1.3,59.87418042897265,
,,,,,,,,,,,,,,,,,,,,,,,,,,,,,,,,,,0,0,0,0,1,0,1,0,6,0,6,0,,,,,,,,,,,,,,,,,,,,,,,3,i,media/ddnb.png,1,TR,0,0,6,1,0,2,0.6422347949273153,1,0,0,52.43753160000779,52.43753160000779,52.43753160000779,None,52.43753160000779,None,53.37156519992277,None,l,0,1.537529000081122,52.43753160000779,None,54.02636960009113,None,54.02636960009113,None,54.02636960009113,None,54.339278999948874,None,2,1,2020_Dec_04_1534,Context_Learning_new,2020.1.3,59.87418042897265,
,,,,,,,,,,,,,,,,,,,,,,,,,,,,,,,,,,0,0,0,0,1,0,1,0,7,0,7,0,,,,,,,,,,,,,,,,,,,,,,,2,u,media/dinb.png,1,TR,0,0,7,1,0,2,0.02749531354105761,1,0,0,54.55404570000246,54.55404570000246,54.55404570000246,None,54.55404570000246,None,None,None,h,0,1.4607295000459999,54.55404570000246,None,56.06305329990573,None,56.06305329990573,None,56.06305329990573,None,56.370844200020656,None,2,1,2020_Dec_04_1534,Context_Learning_new,2020.1.3,59.87418042897265,
,,,,,,,,,,,,,,,,,,,,,,,,,,,,,,,,,,0,0,0,0,1,0,1,0,8,0,8,0,,,,,,,,,,,,,,,,,,,,,,,1,l,media/dnnb.png,1,TR,0,0,8,1,0,2,0.9688520764261497,1,0,0,56.57146289991215,56.57146289991215,56.57146289991215,None,56.57146289991215,None,57.18771529989317,None,i,0,1.5720916998106986,56.57146289991215,None,58.18199469987303,None,58.18199469987303,None,58.18199469987303,None,58.48786349990405,None,2,1,2020_Dec_04_1534,Context_Learning_new,2020.1.3,59.87418042897265,
,,,,,,,,,,,,,,,,,,,,,,,,,,,,,,,,,,0,0,0,0,1,0,1,0,9,0,9,0,,,,,,,,,,,,,,,,,,,,,,,0,h,media/djnb.png,1,TR,0,0,9,1,0,2,0.010521264359053095,1,0,0,58.689243000000715,58.689243000000715,58.689243000000715,None,58.689243000000715,None,None,None,i,0,1.4862273000180721,58.689243000000715,None,60.21344379987568,None,60.21344379987568,None,60.21344379987568,None,60.52059439988807,None,2,1,2020_Dec_04_1534,Context_Learning_new,2020.1.3,59.87418042897265,
,,,,,,,,,,,,,,,,,,,,,,,,,,,,,,,,,,0,0,0,0,1,0,1,0,,,,,,,,,,,,,,,,,,,,,,,,,,,,,,,,,,,,,,,,,,,,,,,,,,,,,,,,,,,,,,,2,1,2020_Dec_04_1534,Context_Learning_new,2020.1.3,59.87418042897265,
,,,,,,,,,,,,,,,,,,,,,,,,,,,,,,,,,,0,0,0,0,2,0,2,0,0,0,0,0,,,,,,,,,,,,,,,,,60.72322959988378,None,h,0.803255699807778,60.72322959988378,None,2,i,media/dinb.png,2,TR,0,0,0,1,0,3,0.8889602452406256,1,0,0,61.55718660005368,61.55718660005368,61.55718660005368,None,61.55718660005368,None,62.254090500064194,None,h,0,1.5774234000127763,61.55718660005368,None,63.16245639999397,None,63.16245639999397,None,63.16245639999397,None,63.4732230999507,None,2,1,2020_Dec_04_1534,Context_Learning_new,2020.1.3,59.87418042897265,
,,,,,,,,,,,,,,,,,,,,,,,,,,,,,,,,,,,,,,,,,,,,,,,,,,,,,,,,,,,,,,,,,,,,0,u,media/djnb.png,2,TR,0,0,1,1,0,3,0.19162838121276105,1,0,1,63.690893799997866,63.690893799997866,63.690893799997866,65.47152890008874,63.690893799997866,None,65.08745280001312,65.47152890008874,None,0,,63.690893799997866,None,,,,,,,,,,,,,,,
